sep=;
ACCELEROMETER X (m/s²);ACCELEROMETER Y (m/s²);ACCELEROMETER Z (m/s²);GRAVITY X (m/s²);GRAVITY Y (m/s²);GRAVITY Z (m/s²);LINEAR ACCELERATION X (m/s²);LINEAR ACCELERATION Y (m/s²);LINEAR ACCELERATION Z (m/s²);GYROSCOPE X (rad/s);GYROSCOPE Y (rad/s);GYROSCOPE Z (rad/s);LIGHT (lux);MAGNETIC FIELD X (μT);MAGNETIC FIELD Y (μT);MAGNETIC FIELD Z (μT);ORIENTATION Z (azimuth °);ORIENTATION X (pitch °);ORIENTATION Y (roll °);PROXIMITY (i);LOCATION Latitude : ;LOCATION Longitude : ;LOCATION Altitude ( m);LOCATION Altitude-google ( m);LOCATION Speed ( Kmh);LOCATION Accuracy ( m);LOCATION ORIENTATION (°);Satellites in range;Time since start in ms ;YYYY-MO-DD HH-MI-SS_SSS
-1.9202;4.0639;8.7117;-1.9034;4.1591;8.6746;0.5581;-1.0797;-0.2737;-0.4618;-0.2805;-0.0021;427.0;34.65;-0.96;-16.44;315.94;-34.54;37.72;2.0;55.873505;-4.292761;319.03;NaN;;54.19032;;0 / 29;12;2022-03-21 14:34:48:657
-1.9202;4.0639;8.7117;-2.0349;4.0682;8.6879;0.1311;0.0819;-0.4119;-0.1396;0.4623;-0.1463;427.0;27.66;1.39;-23.42;300.07;-25.09;12.38;2.0;55.873505;-4.292761;319.03;NaN;;54.19032;;0 / 29;111;2022-03-21 14:34:48:756
-2.3955;4.0831;8.6483;-2.4277;3.9508;8.6411;-0.0263;0.0781;0.1274;-0.0515;0.129;-0.0272;427.0;27.66;1.39;-23.42;300.07;-25.09;12.38;2.0;55.873505;-4.292761;319.03;NaN;;54.19032;;0 / 29;211;2022-03-21 14:34:48:856
-2.6363;4.2362;8.2747;-2.6264;3.9248;8.5947;0.072;0.0235;0.2244;-0.0515;0.129;-0.0272;427.0;20.68;4.33;-29.7;325.46;-23.76;15.69;2.0;55.873505;-4.292761;319.03;NaN;;54.19032;;0 / 29;311;2022-03-21 14:34:48:956
-2.4661;4.8506;7.8437;-2.6264;3.9248;8.5947;0.072;0.0235;0.2244;0.2016;0.1025;0.1406;427.0;20.68;4.33;-29.7;325.46;-23.76;15.69;2.0;55.873505;-4.292761;319.03;NaN;;54.19032;;0 / 29;412;2022-03-21 14:34:49:057
-2.4661;4.8506;7.8437;-2.7328;4.133;8.4629;-0.0678;-0.1945;-0.2579;-0.3874;0.064;0.2311;465.0;18.69;6.02;-31.56;336.17;-23.59;16.99;2.0;55.873505;-4.292761;319.03;NaN;;54.19032;;0 / 29;511;2022-03-21 14:34:49:156
-3.1594;3.8498;8.9701;-2.8265;3.8709;8.5556;-0.2278;0.2593;-0.1299;-0.069;-0.328;-0.0428;465.0;18.69;6.02;-31.56;336.17;-23.59;16.99;2.0;55.873505;-4.292761;319.03;NaN;;54.19032;;0 / 29;611;2022-03-21 14:34:49:256
-2.4541;3.676;8.9689;-2.6127;3.5999;8.7398;-0.2404;-0.0906;0.4418;-0.069;-0.328;-0.0428;465.0;20.12;6.36;-31.48;334.71;-23.25;18.28;2.0;55.873505;-4.292761;319.03;NaN;;54.19032;;0 / 29;711;2022-03-21 14:34:49:356
-2.3788;3.5886;8.8014;-2.3686;3.6054;8.8069;-0.1136;0.0251;0.0296;-0.0341;-0.195;-0.0478;465.0;20.12;6.36;-31.48;334.71;-23.25;18.28;2.0;55.873505;-4.292761;319.03;NaN;;54.19032;;0 / 29;812;2022-03-21 14:34:49:457
-2.3788;3.5886;8.8014;-2.2694;3.4504;8.8947;-0.0643;0.0732;-0.1678;-0.1509;-0.0363;-0.0081;465.0;20.48;6.79;-31.88;330.92;-21.57;15.05;2.0;55.873505;-4.292761;319.03;NaN;;54.19032;;0 / 29;911;2022-03-21 14:34:49:556
-2.3883;3.2465;8.5681;-2.35;3.3488;8.9126;-0.0418;-0.0561;-0.1462;-0.1509;-0.0363;-0.0081;465.0;19.86;7.78;-32.34;330.34;-20.6;14.31;2.0;55.873505;-4.292761;319.03;NaN;;54.19032;;0 / 29;1011;2022-03-21 14:34:49:656
-2.653;3.4774;8.6375;-2.4264;3.3767;8.8815;-0.1351;0.0964;-0.1687;-0.035;0.1614;0.0305;465.0;19.24;8.87;-32.66;334.64;-19.97;14.77;2.0;55.873505;-4.292761;319.03;NaN;;54.19032;;0 / 29;1112;2022-03-21 14:34:49:757
-2.0151;3.4211;8.5164;-2.4264;3.3767;8.8815;-0.1351;0.0964;-0.1687;0.0716;-0.0505;0.0727;465.0;19.24;8.87;-32.66;334.64;-19.97;14.77;2.0;55.873505;-4.292761;319.03;NaN;;54.19032;;0 / 29;1211;2022-03-21 14:34:49:856
-2.6219;3.8294;6.9257;-2.3508;3.5337;8.8407;-0.1373;-0.0741;-0.1013;0.6429;0.4818;-0.1159;465.0;19.05;9.26;-33.04;335.5;-20.14;15.28;2.0;55.873505;-4.292761;319.03;NaN;;54.19032;;0 / 29;1311;2022-03-21 14:34:49:956
-2.549;3.6437;9.1005;-2.7039;3.9614;8.5537;0.1715;-0.0756;-1.1884;0.5455;-0.0548;-0.1972;465.0;19.05;9.26;-33.04;335.5;-20.14;15.28;2.0;55.873505;-4.292761;319.03;NaN;;54.19032;;0 / 29;1411;2022-03-21 14:34:50:056
-3.1077;4.5284;8.2256;-2.7116;4.1111;8.4804;0.4048;-0.592;0.3086;0.5455;-0.0548;-0.1972;434.0;19.48;8.83;-33.26;340.64;-23.83;17.54;2.0;55.873505;-4.292761;319.03;NaN;;54.19032;;0 / 29;1511;2022-03-21 14:34:50:156
-2.665;4.3609;8.0797;-2.6017;4.326;8.4076;-0.3465;0.2379;-0.2932;0.0764;-0.0567;-0.1165;434.0;19.48;8.83;-33.26;340.64;-23.83;17.54;2.0;55.873505;-4.292761;319.03;NaN;;54.19032;;0 / 29;1611;2022-03-21 14:34:50:256
-2.8935;4.4602;8.4087;-2.7735;4.3328;8.3489;0.1116;0.053;-0.1218;-0.0061;0.4693;-0.0895;434.0;19.58;6.66;-32.79;337.7;-26.18;17.19;2.0;55.873505;-4.292761;319.03;NaN;;54.19032;;0 / 29;1711;2022-03-21 14:34:50:356
-3.2599;4.3537;8.0175;-3.2272;4.3619;8.1688;0.0679;0.0421;-0.1409;-0.0215;0.3155;-0.0337;434.0;19.58;6.66;-32.79;337.7;-26.18;17.19;2.0;55.873505;-4.292761;319.03;NaN;;54.19032;;0 / 29;1811;2022-03-21 14:34:50:456
-3.5746;4.4818;8.0139;-3.2272;4.3619;8.1688;0.0679;0.0421;-0.1409;-0.0215;0.3155;-0.0337;467.0;20.14;5.1;-31.59;341.94;-26.41;21.56;2.0;55.873505;-4.292761;319.03;NaN;;54.19032;;0 / 29;1911;2022-03-21 14:34:50:556
-3.23;4.4279;7.8855;-3.3809;4.3019;8.1384;-0.1857;0.1815;-0.1372;0.0576;-0.4126;0.031;467.0;20.14;5.1;-31.59;341.94;-26.41;21.56;2.0;55.873505;-4.292761;319.03;NaN;;54.19032;;0 / 29;2011;2022-03-21 14:34:50:656
-2.8122;4.2087;8.1598;-3.0285;4.3273;8.2628;-0.0404;0.0416;-0.1397;-0.0365;0.0067;-0.0131;435.0;21.19;4.41;-30.71;339.14;-26.02;22.56;2.0;55.873505;-4.292761;319.03;NaN;;54.19032;;0 / 29;2111;2022-03-21 14:34:50:756
-3.1041;4.3418;8.2675;-2.9894;4.2986;8.2919;-0.0331;0.0831;0.1121;-0.0099;-0.0771;0.0098;435.0;21.19;4.41;-30.71;339.14;-26.02;22.56;2.0;55.873505;-4.292761;319.03;NaN;;54.19032;;0 / 29;2211;2022-03-21 14:34:50:856
-2.9438;4.2879;8.3273;-2.9482;4.3092;8.3011;-9.0E-4;0.0229;0.0166;-0.0099;-0.0771;0.0098;435.0;21.98;5.01;-31.26;333.64;-26.0;19.83;2.0;55.873505;-4.292761;319.03;NaN;;54.19032;;0 / 29;2311;2022-03-21 14:34:50:956
-3.0802;4.4339;8.3249;-3.0377;4.3087;8.2691;0.0204;0.0296;-0.1131;-0.0298;0.1142;-0.0195;435.0;21.58;4.97;-31.78;333.64;-26.0;19.83;2.0;55.873505;-4.292761;319.03;NaN;;54.19032;;0 / 29;2411;2022-03-21 14:34:51:056
-2.9533;4.4028;8.4972;-2.9756;4.3204;8.2855;-0.101;0.0742;-0.043;-0.0128;-0.1121;0.0115;435.0;21.15;5.4;-31.95;337.42;-26.06;20.17;2.0;55.873505;-4.292761;319.03;NaN;;54.19032;;0 / 29;2511;2022-03-21 14:34:51:156
-3.055;4.4985;8.1838;-2.9586;4.3268;8.2883;0.0635;-0.0223;0.1762;-0.0128;-0.1121;0.0115;435.0;21.15;5.4;-31.95;337.42;-26.06;20.17;2.0;55.873505;-4.292761;319.03;NaN;;54.19032;;0 / 29;2611;2022-03-21 14:34:51:256
-2.9701;4.3872;8.3237;-2.9586;4.3268;8.2883;0.0635;-0.0223;0.1762;0.0476;0.0811;0.0102;435.0;21.02;5.27;-31.93;336.65;-26.18;19.64;2.0;55.873505;-4.292761;319.03;NaN;;54.19032;;0 / 29;2711;2022-03-21 14:34:51:356
-3.0132;4.3789;8.1455;-2.9736;4.3758;8.2572;-0.0351;0.0496;-0.0448;0.0238;-0.0489;0.0084;435.0;21.02;5.27;-31.93;336.65;-26.18;19.64;2.0;55.873505;-4.292761;319.03;NaN;;54.19032;;0 / 29;2812;2022-03-21 14:34:51:457
-3.1606;4.3382;8.9952;-2.9509;4.3938;8.2557;0.0384;-0.0087;-0.0306;-0.1083;0.1229;0.0153;435.0;20.98;5.23;-31.84;337.08;-26.5;19.8;2.0;55.873505;-4.292761;319.03;NaN;;54.19032;;0 / 29;2911;2022-03-21 14:34:51:556
-3.0036;4.6971;7.9179;-3.0086;4.3256;8.2709;-0.0708;0.0763;0.0701;0.0276;-0.3034;0.0431;435.0;20.98;5.23;-31.84;337.08;-26.5;19.8;2.0;55.873505;-4.292761;319.03;NaN;;54.19032;;0 / 29;3012;2022-03-21 14:34:51:657
-2.5283;4.2999;8.4482;-2.7412;4.4031;8.3228;-0.2075;0.2366;-0.3689;0.0276;-0.3034;0.0431;435.0;20.64;4.97;-31.72;337.19;-26.17;19.99;2.0;55.873505;-4.292761;319.03;NaN;;54.19032;;0 / 29;3113;2022-03-21 14:34:51:758
-2.6243;4.4064;8.1838;-2.5777;4.4163;8.3679;0.0483;-0.0937;0.1086;0.0435;0.0162;0.0098;435.0;20.64;4.97;-31.72;337.19;-26.17;19.99;2.0;55.873505;-4.292761;319.03;NaN;;54.19032;;0 / 29;3211;2022-03-21 14:34:51:856
-2.8421;4.4231;8.6351;-2.7889;4.409;8.3038;0.0138;-0.0337;0.0146;-0.0252;0.0751;-0.0057;435.0;20.42;4.78;-32.85;336.21;-26.77;17.12;2.0;55.873505;-4.292761;319.03;NaN;;54.19032;;0 / 29;3314;2022-03-21 14:34:51:959
-2.6554;4.5212;8.4852;-2.7134;4.393;8.3372;0.0107;0.0941;-0.1687;-0.0275;-0.1269;0.0189;435.0;20.42;4.78;-32.85;336.21;-26.77;17.12;2.0;55.873505;-4.292761;319.03;NaN;;54.19032;;0 / 29;3412;2022-03-21 14:34:52:057
-2.6578;4.3992;8.6303;-2.7134;4.393;8.3372;0.0107;0.0941;-0.1687;-0.0275;-0.1269;0.0189;435.0;19.99;4.73;-33.56;338.64;-26.61;18.03;2.0;55.873505;-4.292761;319.03;NaN;;54.19032;;0 / 29;3512;2022-03-21 14:34:52:157
-2.7559;4.3801;8.5355;-2.6934;4.3704;8.3556;0.0671;0.0055;0.0832;-0.0031;0.0406;-0.0195;435.0;19.91;4.95;-33.86;338.64;-26.61;18.03;2.0;55.873505;-4.292761;319.03;NaN;;54.19032;;0 / 29;3612;2022-03-21 14:34:52:257
-2.7476;4.3214;8.1275;-2.7425;4.354;8.3482;-0.0417;-0.026;0.0309;-0.0156;-0.0345;0.0055;435.0;20.29;5.23;-34.03;338.77;-26.36;18.19;2.0;55.873505;-4.292761;319.03;NaN;;54.19032;;0 / 29;3713;2022-03-21 14:34:52:358
-2.8301;4.3585;8.4182;-2.7305;4.341;8.3588;0.0144;-0.0276;-0.1701;-0.011;0.0915;0.0017;435.0;20.29;5.23;-34.03;338.77;-26.36;18.19;2.0;55.873505;-4.292761;319.03;NaN;;54.19032;;0 / 29;3811;2022-03-21 14:34:52:456
-2.8624;4.3645;8.4266;-2.7831;4.3371;8.3435;0.0372;0.051;0.0049;-0.011;0.0915;0.0017;435.0;20.18;5.46;-33.69;338.57;-26.27;18.09;2.0;55.873505;-4.292761;319.03;NaN;;54.19032;;0 / 29;3911;2022-03-21 14:34:52:556
-3.0036;4.3346;8.295;-2.9069;4.3501;8.2944;0.0505;-0.0133;-0.1146;0.0084;0.1578;-0.009;435.0;20.18;5.46;-33.69;338.57;-26.27;18.09;2.0;55.873505;-4.292761;319.03;NaN;;54.19032;;0 / 29;4012;2022-03-21 14:34:52:657
-2.9773;4.1405;8.1969;-3.016;4.3413;8.26;0.0633;-0.0936;-0.0046;0.0137;0.1242;-0.0275;435.0;20.63;5.42;-33.53;338.53;-26.33;19.31;2.0;55.873505;-4.292761;319.03;NaN;;54.19032;;0 / 29;4111;2022-03-21 14:34:52:756
-3.0742;4.1788;8.0067;-3.016;4.3413;8.26;0.0633;-0.0936;-0.0046;0.0137;0.1242;-0.0275;435.0;21.06;5.12;-32.85;338.53;-26.33;19.31;2.0;55.873505;-4.292761;319.03;NaN;;54.19032;;0 / 29;4211;2022-03-21 14:34:52:856
-3.5614;4.4889;7.7767;-3.2104;4.3452;8.1843;0.1;-0.0726;-0.1145;0.0183;0.3163;-0.0397;465.0;22.18;5.21;-32.53;338.73;-26.3;21.42;2.0;55.873505;-4.292761;319.03;NaN;;54.19032;;0 / 29;4311;2022-03-21 14:34:52:956
-3.5818;4.3071;7.919;-3.529;4.3853;8.0303;-0.0719;0.1043;-0.2007;0.0499;0.1548;-0.0119;465.0;22.18;5.21;-32.53;338.73;-26.3;21.42;2.0;55.873524;-4.29259;183.53;NaN;8.42;152.15483;62.4;0 / 29;4411;2022-03-21 14:34:53:056
-3.807;4.3358;8.0761;-3.6874;4.4001;7.9506;0.0632;-0.0275;-0.0869;-0.0093;0.272;-8.0E-4;494.0;23.34;5.08;-31.95;339.35;-26.56;23.72;2.0;55.873524;-4.29259;183.53;NaN;8.42;152.15483;62.4;0 / 29;4511;2022-03-21 14:34:53:156
-4.1384;4.4423;8.2376;-3.9358;4.3425;7.8628;-0.0182;0.1353;-0.2639;0.1684;-0.1361;0.0157;494.0;23.34;5.08;-31.95;339.35;-26.56;23.72;2.0;55.873524;-4.29259;183.53;NaN;8.42;152.15483;62.4;0 / 29;4611;2022-03-21 14:34:53:256
-4.1169;4.5858;7.3636;-3.8753;4.4271;7.8456;-0.2132;0.16;-0.5553;0.1684;-0.1361;0.0157;494.0;24.86;5.34;-30.6;338.67;-26.28;26.59;2.0;55.873524;-4.29259;183.53;NaN;8.42;152.15483;62.4;0 / 29;4711;2022-03-21 14:34:53:356
-3.6033;4.2927;7.8963;-3.5679;4.3683;8.0223;0.0787;-0.1686;0.0381;-0.0096;-0.2986;0.0382;494.0;24.86;5.34;-30.6;338.67;-26.28;26.59;2.0;55.873524;-4.29259;183.53;NaN;8.42;152.15483;62.4;0 / 29;4812;2022-03-21 14:34:53:457
-3.4537;4.1189;8.2328;-3.561;4.3405;8.0405;-0.0622;0.0395;-0.2584;-0.0325;-0.0979;-0.0058;494.0;25.82;5.78;-30.3;332.58;-26.45;23.98;2.0;55.873524;-4.29259;183.53;NaN;8.42;152.15483;62.4;0 / 29;4911;2022-03-21 14:34:53:556
-3.4178;4.156;8.0809;-3.561;4.3405;8.0405;-0.0622;0.0395;-0.2584;-0.0402;-0.0073;0.0086;494.0;25.82;5.78;-30.3;332.58;-26.45;23.98;2.0;55.873524;-4.29259;183.53;NaN;8.42;152.15483;62.4;0 / 29;5011;2022-03-21 14:34:53:656
-3.5506;4.349;7.9298;-3.5105;4.2951;8.087;-0.0629;0.0527;0.041;-0.0402;-0.0073;0.0086;494.0;25.99;6.23;-30.71;333.58;-26.27;23.89;2.0;55.873524;-4.29259;183.53;NaN;8.42;152.15483;62.4;0 / 29;5111;2022-03-21 14:34:53:756
-3.6117;4.3669;8.1586;-3.4909;4.2796;8.1036;-0.0072;0.1397;-0.0844;0.0079;-0.0318;0.0021;494.0;25.54;6.24;-31.28;333.58;-26.27;23.89;2.0;55.873524;-4.29259;183.53;NaN;8.42;152.15483;62.4;0 / 29;5211;2022-03-21 14:34:53:856
-3.7639;4.4913;8.0952;-3.538;4.2915;8.0769;-0.0198;0.0588;0.0727;0.0246;0.0319;-0.0283;494.0;25.16;5.94;-31.5;336.02;-25.95;23.66;2.0;55.873524;-4.29259;183.53;NaN;8.42;152.15483;62.4;0 / 29;5311;2022-03-21 14:34:53:956
-3.6176;4.2736;8.2041;-3.5477;4.2908;8.073;-0.094;0.1119;-0.0844;0.0305;0.013;-0.0018;494.0;25.16;5.94;-31.5;336.02;-25.95;23.66;2.0;55.873524;-4.292516;202.93;NaN;8.39;148.69676;71.1;5 / 29;5412;2022-03-21 14:34:54:057
-3.6718;4.5176;7.9956;-3.5513;4.2911;8.0712;-0.0235;-0.0529;0.1102;0.0305;0.013;-0.0018;494.0;25.14;5.64;-31.48;334.88;-25.95;23.72;2.0;55.873524;-4.292516;202.93;NaN;8.39;148.69676;71.1;5 / 29;5511;2022-03-21 14:34:54:156
-4.1264;4.4507;7.6367;-3.9785;4.4071;7.8051;0.1344;0.0018;0.1131;0.2124;0.5244;-0.0414;494.0;25.14;5.64;-31.48;334.88;-25.95;23.72;2.0;55.873524;-4.292516;202.93;NaN;8.39;148.69676;71.1;5 / 29;5612;2022-03-21 14:34:54:257
-4.6711;4.6349;7.3505;-4.3969;4.4652;7.5432;0.1614;-0.0731;0.1871;0.0026;0.4752;-0.0194;494.0;25.43;5.72;-31.33;340.29;-26.71;27.01;2.0;55.873524;-4.292516;202.93;NaN;8.39;148.69676;71.1;5 / 29;5711;2022-03-21 14:34:54:356
-4.646;4.5045;7.3672;-4.3969;4.4652;7.5432;0.1614;-0.0731;0.1871;0.0026;0.4752;-0.0194;494.0;25.43;5.72;-31.33;340.29;-26.71;27.01;2.0;55.873524;-4.292516;202.93;NaN;8.39;148.69676;71.1;5 / 29;5811;2022-03-21 14:34:54:456
-4.6651;4.5009;7.1865;-4.4378;4.5142;7.4899;-0.1741;0.016;-0.4296;-0.0066;-0.0415;-0.0238;494.0;27.32;6.06;-30.94;341.99;-27.09;30.24;2.0;55.873524;-4.292516;202.93;NaN;8.39;148.69676;71.1;5 / 29;5911;2022-03-21 14:34:54:556
-4.7273;4.7785;8.557;-4.6243;4.5167;7.3747;0.0116;-0.0238;-0.2374;-0.2822;0.2486;0.0148;533.0;27.32;6.06;-30.94;341.99;-27.09;30.24;2.0;55.873524;-4.292516;202.93;NaN;8.39;148.69676;71.1;5 / 29;6011;2022-03-21 14:34:54:656
-4.7752;4.6875;6.8213;-4.6773;4.4688;7.3704;-0.2325;0.1505;0.5944;-0.0505;-0.3981;-0.0134;533.0;29.19;5.83;-29.49;338.89;-27.42;32.09;2.0;55.873524;-4.292516;202.93;NaN;8.39;148.69676;71.1;5 / 29;6111;2022-03-21 14:34:54:756
-4.1874;4.1249;7.4405;-4.2531;4.4196;7.6517;-0.2025;0.0784;0.1424;-0.1381;-0.4193;0.035;486.0;29.19;5.83;-29.49;338.89;-27.42;32.09;2.0;55.873524;-4.292516;202.93;NaN;8.39;148.69676;71.1;5 / 29;6211;2022-03-21 14:34:54:856
-3.9123;4.4303;7.6857;-3.8978;4.3414;7.8822;-0.0122;0.0511;-0.0236;-0.1381;-0.4193;0.035;486.0;30.24;6.0;-29.21;332.54;-26.79;29.07;2.0;55.873524;-4.292516;202.93;NaN;8.39;148.69676;71.1;5 / 29;6311;2022-03-21 14:34:54:956
-3.9458;4.3717;7.7982;-3.7899;4.2402;7.9892;-0.0856;0.0296;-0.1614;-0.1457;-0.0924;0.0605;481.0;30.24;6.0;-29.21;332.54;-26.79;29.07;2.0;55.873524;-4.292516;202.93;NaN;8.39;148.69676;71.1;5 / 29;6411;2022-03-21 14:34:55:056
-3.9458;4.3717;7.7982;-3.7899;4.2402;7.9892;-0.0856;0.0296;-0.1614;-0.0544;-0.0925;0.0159;481.0;29.83;6.26;-30.54;329.09;-25.62;25.38;2.0;55.873524;-4.292516;202.93;NaN;8.39;148.69676;71.1;5 / 29;6511;2022-03-21 14:34:55:156
-3.7735;4.1704;8.3728;-3.6872;4.1615;8.0782;-0.047;0.0817;-0.3544;-0.0544;-0.0925;0.0159;481.0;29.83;6.26;-30.54;329.09;-25.62;25.38;2.0;55.873524;-4.292516;202.93;NaN;8.39;148.69676;71.1;5 / 29;6611;2022-03-21 14:34:55:256
-4.0152;4.2927;7.9131;-3.7724;4.2236;8.0063;-0.1276;0.1803;-0.1905;0.0919;0.0794;-0.0049;481.0;28.35;6.34;-32.01;331.8;-25.11;24.53;2.0;55.873524;-4.292516;202.93;NaN;8.39;148.69676;71.1;5 / 29;6711;2022-03-21 14:34:55:356
-3.9242;4.6516;7.5302;-3.835;4.3395;7.914;0.0311;-0.0075;0.3411;0.3013;-0.0136;-0.0202;481.0;28.35;6.34;-32.01;331.8;-25.11;24.53;2.0;55.873524;-4.292516;202.93;NaN;8.39;148.69676;71.1;5 / 29;6811;2022-03-21 14:34:55:456
-3.9242;4.6516;7.5302;-3.8507;4.466;7.8356;0.0725;0.1088;-0.4349;-0.113;-0.0964;0.0693;481.0;28.37;5.91;-32.12;334.46;-26.26;25.85;2.0;55.873524;-4.292516;202.93;NaN;8.39;148.69676;71.1;5 / 29;6912;2022-03-21 14:34:55:557
-3.8501;4.1489;8.2938;-3.8373;4.382;7.8894;0.0429;-0.1226;0.1923;-0.113;-0.0964;0.0693;481.0;28.37;5.91;-32.12;334.46;-26.26;25.85;2.0;55.873524;-4.292516;202.93;NaN;8.39;148.69676;71.1;5 / 29;7011;2022-03-21 14:34:55:656
-4.6663;4.8793;6.673;-4.3073;4.7048;7.4487;-0.0423;-0.0316;0.0094;0.3659;0.5043;-0.0541;481.0;28.67;5.96;-32.16;333.18;-26.54;25.94;2.0;55.873524;-4.292516;202.93;NaN;8.39;148.69676;71.1;5 / 29;7111;2022-03-21 14:34:55:756
-4.8987;4.9295;6.46;-4.3073;4.7048;7.4487;-0.0423;-0.0316;0.0094;0.0635;0.5433;-0.0933;520.0;28.67;5.96;-32.16;333.18;-26.54;25.94;2.0;55.873524;-4.292516;202.93;NaN;8.39;148.69676;71.1;5 / 29;7211;2022-03-21 14:34:55:856
-5.7365;5.4395;8.7105;-4.8282;4.8227;7.0428;0.0354;0.0369;0.0573;-0.4395;0.4305;-0.0776;520.0;29.94;5.38;-30.62;344.06;-29.46;34.43;2.0;55.873524;-4.292516;202.93;NaN;8.39;148.69676;71.1;5 / 29;7311;2022-03-21 14:34:55:956
-5.6886;5.7793;5.6291;-5.208;4.6546;6.8834;-0.1751;0.6187;0.3587;-0.4395;0.4305;-0.0776;464.0;29.94;5.38;-30.62;344.06;-29.46;34.43;2.0;55.873524;-4.292516;202.93;NaN;8.39;148.69676;71.1;5 / 29;7412;2022-03-21 14:34:56:057
-3.3305;4.6756;8.6148;-4.507;4.7828;7.2789;-0.8424;0.7788;-1.2453;-0.6087;-1.7304;0.295;464.0;33.53;5.12;-29.06;339.05;-28.34;37.11;2.0;55.873524;-4.292516;202.93;NaN;8.39;148.69676;71.1;5 / 29;7511;2022-03-21 14:34:56:156
-1.7767;3.9191;7.0848;-2.5164;4.2518;8.4711;-0.691;0.3051;0.1994;-0.4931;-1.3055;0.1622;464.0;33.53;5.12;-29.06;339.05;-28.34;37.11;2.0;55.873524;-4.292516;202.93;NaN;8.39;148.69676;71.1;5 / 29;7611;2022-03-21 14:34:56:256
-1.2404;4.4626;8.7081;-1.9912;4.0894;8.6881;0.32;-0.2194;-1.4155;0.4493;-1.8037;0.2204;402.0;31.61;4.73;-29.83;313.39;-25.69;16.54;2.0;55.873524;-4.292516;202.93;NaN;8.39;148.69676;71.1;5 / 29;7711;2022-03-21 14:34:56:356
-0.9341;4.386;7.7791;-0.3926;4.3415;8.7845;0.3536;-0.1194;0.0666;-0.3677;0.0666;0.1217;402.0;31.61;4.73;-29.83;313.39;-25.69;16.54;2.0;55.873524;-4.292516;202.93;NaN;8.39;148.69676;71.1;5 / 29;7811;2022-03-21 14:34:56:456
-0.9317;3.5743;9.3425;-0.7017;4.045;8.906;-0.0307;0.3919;0.3344;-0.3677;0.0666;0.1217;402.0;24.53;5.79;-33.96;311.72;-26.28;2.56;2.0;55.873524;-4.292516;202.93;NaN;8.39;148.69676;71.1;5 / 29;7911;2022-03-21 14:34:56:556
-1.6857;3.8593;8.2531;-0.7017;4.045;8.906;-0.0307;0.3919;0.3344;-0.2827;0.6374;0.046;402.0;24.53;5.79;-33.96;311.72;-26.28;2.56;2.0;55.873524;-4.292516;202.93;NaN;8.39;148.69676;71.1;5 / 29;8011;2022-03-21 14:34:56:656
-1.6666;3.7014;8.7679;-1.3943;3.7705;8.9448;-0.1295;0.1471;-0.152;-0.0728;0.2274;0.0252;402.0;17.61;6.92;-38.18;326.48;-24.36;4.51;2.0;55.873524;-4.292516;202.93;NaN;8.39;148.69676;71.1;5 / 29;8111;2022-03-21 14:34:56:756
-1.9131;3.7493;9.1247;-1.6184;3.7099;8.9324;-0.0411;-0.0333;-0.2035;0.0104;0.2341;0.0527;402.0;17.61;6.92;-38.18;326.48;-24.36;4.51;2.0;55.873524;-4.292516;202.93;NaN;8.39;148.69676;71.1;5 / 29;8211;2022-03-21 14:34:56:856
-2.5259;3.8474;8.7272;-1.8943;3.6537;8.9013;-0.1731;0.1016;0.1477;0.0104;0.2341;0.0527;432.0;16.59;7.39;-38.68;336.18;-22.23;10.27;2.0;55.873524;-4.292516;202.93;NaN;8.39;148.69676;71.1;5 / 29;8311;2022-03-21 14:34:56:956
-1.8676;4.0125;9.795;-2.1684;3.6752;8.8296;-0.1173;0.1402;0.0705;0.0347;0.1063;0.0458;432.0;16.59;7.39;-38.68;336.18;-22.23;10.27;2.0;55.873524;-4.292516;202.93;NaN;8.39;148.69676;71.1;5 / 29;8411;2022-03-21 14:34:57:056
-2.1407;3.6843;9.0838;-2.1329;3.7218;8.8187;0.1609;0.0737;0.2044;-0.0765;0.0145;0.046;432.0;20.14;7.99;-37.61;335.78;-22.01;13.8;2.0;55.873524;-4.292516;202.93;NaN;8.39;148.69676;71.1;5 / 29;8511;2022-03-21 14:34:57:156
-2.0426;3.888;9.2324;-1.9032;3.7866;8.8436;-0.1403;0.1523;0.1727;-0.0765;0.0145;0.046;432.0;20.14;7.99;-37.61;335.78;-22.01;13.8;2.0;55.873524;-4.292516;202.93;NaN;8.39;148.69676;71.1;5 / 29;8611;2022-03-21 14:34:57:256
-1.8173;4.5272;8.3776;-1.7754;4.2361;8.6645;0.0901;0.0234;0.036;0.3858;-0.2132;0.2578;432.0;21.62;7.91;-37.18;329.32;-22.71;12.14;2.0;55.873524;-4.292516;202.93;NaN;8.39;148.69676;71.1;5 / 29;8711;2022-03-21 14:34:57:356
-2.1048;4.9367;7.925;-1.7754;4.2361;8.6645;0.0901;0.0234;0.036;0.3841;0.268;0.1503;432.0;21.62;7.91;-37.18;329.32;-22.71;12.14;2.0;55.873524;-4.292516;202.93;NaN;8.39;148.69676;71.1;5 / 29;8812;2022-03-21 14:34:57:457
-1.9971;5.1401;7.0681;-1.9814;4.6485;8.4045;-0.1606;-0.0019;-0.1356;0.1516;0.191;0.0298;432.0;22.28;6.56;-37.73;330.19;-25.59;11.58;2.0;55.873524;-4.292516;202.93;NaN;8.39;148.69676;71.1;5 / 29;8911;2022-03-21 14:34:57:556
-2.0258;4.829;8.234;-2.0891;4.9001;8.2338;-0.0197;0.1113;-0.6038;0.1516;0.191;0.0298;432.0;22.28;6.56;-37.73;330.19;-25.59;11.58;2.0;55.873524;-4.292516;202.93;NaN;8.39;148.69676;71.1;5 / 29;9011;2022-03-21 14:34:57:656
-2.1837;4.9223;8.1407;-2.0247;4.9146;8.2412;-0.0673;-0.1027;-0.0529;0.014;0.0235;0.0544;432.0;22.03;4.28;-36.86;333.09;-29.98;14.24;2.0;55.873524;-4.292516;202.93;NaN;8.39;148.69676;71.1;5 / 29;9111;2022-03-21 14:34:57:756
-2.1837;4.9223;8.1407;-2.1581;5.0476;8.1262;-0.0992;-0.0192;-0.2475;0.1771;0.0646;0.067;432.0;22.03;4.28;-36.86;333.09;-29.98;14.24;2.0;55.873524;-4.292516;202.93;NaN;8.39;148.69676;71.1;5 / 29;9212;2022-03-21 14:34:57:857
-2.8899;5.4682;7.2643;-2.2522;5.2153;7.9937;-0.2529;0.177;-0.3847;-0.0261;-0.057;-0.048;432.0;22.11;2.83;-35.66;332.79;-30.98;14.87;2.0;55.873524;-4.292516;202.93;NaN;8.39;148.69676;71.1;5 / 29;9311;2022-03-21 14:34:57:956
-2.2053;5.0204;8.2962;-2.1817;5.0836;8.0974;0.0599;0.0485;0.0246;-0.0261;-0.057;-0.048;432.0;22.11;2.83;-35.66;332.79;-30.98;14.87;2.0;55.873524;-4.292516;202.93;NaN;8.39;148.69676;71.1;5 / 29;9412;2022-03-21 14:34:58:057
-2.2053;5.0204;8.2962;-2.1817;5.0836;8.0974;0.0599;0.0485;0.0246;-0.1411;-0.2056;-0.0492;432.0;22.44;2.29;-34.95;331.33;-31.22;15.08;2.0;55.873524;-4.292516;202.93;NaN;8.39;148.69676;71.1;5 / 29;9511;2022-03-21 14:34:58:156
-2.033;5.176;7.9107;-2.0291;5.002;8.1874;-0.0808;0.0725;0.0422;-0.0057;-0.3537;-0.0877;432.0;22.44;2.29;-34.95;331.33;-31.22;15.08;2.0;55.873524;-4.292516;202.93;NaN;8.39;148.69676;71.1;5 / 29;9611;2022-03-21 14:34:58:256
-1.2117;4.8697;8.6698;-1.7753;5.0122;8.24;-0.1123;0.0123;-0.1956;0.223;-0.5617;-0.1112;404.0;22.11;2.08;-34.67;329.26;-30.67;13.92;2.0;55.873524;-4.292516;202.93;NaN;8.39;148.69676;71.1;5 / 29;9712;2022-03-21 14:34:58:357
-1.4441;4.7091;8.7727;-1.3389;5.1009;8.2679;-0.1356;0.0105;0.1185;0.223;-0.5617;-0.1112;404.0;22.11;2.08;-34.67;329.26;-30.67;13.92;2.0;55.873524;-4.292516;202.93;NaN;8.39;148.69676;71.1;5 / 29;9811;2022-03-21 14:34:58:456
-1.4441;4.7091;8.7727;-1.4127;4.7425;8.4666;0.0147;0.0387;-0.0124;-0.4623;0.0605;-0.0541;404.0;20.55;2.03;-35.32;324.76;-31.34;9.2;2.0;55.873524;-4.292516;202.93;NaN;8.39;148.69676;71.1;5 / 29;9912;2022-03-21 14:34:58:557
-1.5637;4.5679;8.7703;-1.4077;4.5323;8.5818;0.0559;-0.0741;0.1333;-0.0273;0.0266;0.0127;404.0;19.26;2.79;-36.02;327.78;-27.53;9.32;2.0;55.873524;-4.292516;202.93;NaN;8.39;148.69676;71.1;5 / 29;10031;2022-03-21 14:34:58:676
-1.5637;4.5679;8.7703;-1.4801;4.5909;8.5384;0.0512;0.0712;0.0091;0.1541;-0.2808;-0.0082;404.0;19.26;2.79;-36.02;327.78;-27.53;9.32;2.0;55.873524;-4.292516;202.93;NaN;8.39;148.69676;71.1;5 / 29;10111;2022-03-21 14:34:58:756
-1.7121;4.611;8.6507;-1.5543;4.7215;8.4535;0.0699;-0.2572;-0.3556;0.1541;-0.2808;-0.0082;404.0;19.26;2.79;-36.02;327.78;-27.53;9.32;2.0;55.873524;-4.292516;202.93;NaN;8.39;148.69676;71.1;5 / 29;10212;2022-03-21 14:34:58:857
-1.7121;4.611;8.6507;-1.5543;4.7215;8.4535;0.0699;-0.2572;-0.3556;-0.1932;1.4169;-0.1228;444.0;18.69;3.75;-37.05;332.13;-28.78;10.42;2.0;55.873524;-4.292516;202.93;NaN;8.39;148.69676;71.1;5 / 29;10311;2022-03-21 14:34:58:956
-2.5597;5.042;9.2444;-2.3061;4.6507;8.3201;-0.0488;0.1334;0.5327;0.3569;0.1923;-0.1764;444.0;18.69;3.75;-37.05;332.13;-28.78;10.42;2.0;55.873524;-4.292516;202.93;NaN;8.39;148.69676;71.1;5 / 29;10412;2022-03-21 14:34:59:057
-2.3321;4.812;7.9466;-2.4416;4.9549;8.103;-0.1576;-0.0098;-0.148;0.0409;-0.1136;-0.0076;444.0;20.63;4.33;-36.53;335.85;-28.31;15.49;2.0;55.873524;-4.292516;202.93;NaN;8.39;148.69676;71.1;5 / 29;10511;2022-03-21 14:34:59:156
-2.49;5.0898;8.4111;-2.3575;5.0364;8.0776;-0.1431;0.032;0.0207;0.1017;0.1338;-0.0464;444.0;20.63;4.33;-36.53;335.85;-28.31;15.49;2.0;55.873524;-4.292516;202.93;NaN;8.39;148.69676;71.1;5 / 29;10611;2022-03-21 14:34:59:256
-2.49;5.0898;8.4111;-2.5081;5.0691;8.0115;0.1177;-0.1481;0.4765;0.1017;0.1338;-0.0464;444.0;22.58;3.45;-35.51;333.09;-30.9;16.27;2.0;55.873524;-4.292516;202.93;NaN;8.39;148.69676;71.1;5 / 29;10712;2022-03-21 14:34:59:357
-3.0455;5.5137;7.8006;-3.0642;5.1918;7.7347;-0.0277;0.1072;-0.1108;0.1599;0.5823;-0.0733;444.0;22.58;3.45;-35.51;333.09;-30.9;16.27;2.0;55.873524;-4.292516;202.93;NaN;8.39;148.69676;71.1;5 / 29;10811;2022-03-21 14:34:59:456
-3.5435;5.2478;9.1487;-3.3599;5.2005;7.605;-0.1828;0.0115;0.1711;0.0773;-0.1715;0.0226;444.0;24.51;2.44;-34.33;335.3;-31.97;21.61;2.0;55.873524;-4.292516;202.93;NaN;8.39;148.69676;71.1;5 / 29;10911;2022-03-21 14:34:59:556
-2.8732;5.0659;8.0761;-3.0633;5.1489;7.7637;-0.0932;-0.0654;-0.1165;-0.097;-0.1924;0.0289;408.0;24.51;2.44;-34.33;335.3;-31.97;21.61;2.0;55.873524;-4.292516;202.93;NaN;8.39;148.69676;71.1;5 / 29;11011;2022-03-21 14:34:59:656
-2.8732;5.0659;8.0761;-3.0633;5.1489;7.7637;-0.0932;-0.0654;-0.1165;-0.097;-0.1924;0.0289;408.0;25.35;2.33;-34.37;335.02;-31.67;21.53;2.0;55.873524;-4.292516;202.93;NaN;8.39;148.69676;71.1;5 / 29;11111;2022-03-21 14:34:59:756
-3.1029;5.1449;8.0258;-2.9758;5.1163;7.8191;-0.0601;0.0845;-0.2453;-0.0617;-0.0371;0.0116;408.0;25.35;2.33;-34.37;335.02;-31.67;21.53;2.0;55.873524;-4.292516;202.93;NaN;8.39;148.69676;71.1;5 / 29;11211;2022-03-21 14:34:59:856
-2.9833;5.0635;8.2268;-2.9132;5.0658;7.8753;-0.1028;0.0615;0.0177;-0.0663;0.0148;-2.0E-4;408.0;25.97;2.57;-34.54;334.14;-31.45;20.84;2.0;55.873524;-4.292516;202.93;NaN;8.39;148.69676;71.1;5 / 29;11311;2022-03-21 14:34:59:956
-2.8708;5.0731;8.1215;-2.8924;5.0236;7.9099;-0.0534;0.0091;0.1416;-0.0531;-0.0125;0.0082;435.0;25.97;2.57;-34.54;334.14;-31.45;20.84;2.0;55.873524;-4.292516;202.93;NaN;8.39;148.69676;71.1;5 / 29;11411;2022-03-21 14:35:00:056
-2.8708;5.0731;8.1215;-2.8701;4.9968;7.935;-0.0072;0.0188;0.0751;-0.0531;-0.0125;0.0082;435.0;25.43;2.96;-35.61;335.41;-30.82;20.09;2.0;55.873524;-4.292516;202.93;NaN;8.39;148.69676;71.1;5 / 29;11511;2022-03-21 14:35:00:156
-3.0287;5.0563;8.0952;-2.9109;4.9768;7.9328;-0.0716;0.0404;0.0255;-0.0089;0.0105;-0.0061;435.0;25.43;2.96;-35.61;335.41;-30.82;20.09;2.0;55.873524;-4.292516;202.93;NaN;8.39;148.69676;71.1;5 / 29;11612;2022-03-21 14:35:00:257
-2.9761;5.0898;7.8006;-2.872;4.959;7.958;-0.0211;0.0232;0.046;-0.0115;-0.0101;-0.0031;435.0;25.14;3.21;-36.11;335.34;-30.5;20.15;2.0;55.873524;-4.292516;202.93;NaN;8.39;148.69676;71.1;5 / 29;11711;2022-03-21 14:35:00:356
-2.9306;5.109;8.1144;-2.872;4.959;7.958;-0.0211;0.0232;0.046;-0.0115;-0.0101;-0.0031;435.0;25.14;3.21;-36.11;335.34;-30.5;20.15;2.0;55.873524;-4.292516;202.93;NaN;8.39;148.69676;71.1;5 / 29;11811;2022-03-21 14:35:00:456
-2.2149;6.4639;8.2531;-2.7973;4.9603;7.9838;-0.1304;-0.0273;0.0433;8.0E-4;-0.7353;0.0443;435.0;24.99;3.38;-36.92;335.06;-30.39;19.31;2.0;55.873524;-4.292516;202.93;NaN;8.39;148.69676;71.1;5 / 29;11911;2022-03-21 14:35:00:556
-3.1881;3.2776;11.3656;-1.8249;4.8783;8.3092;0.0463;1.3148;-0.6173;8.0E-4;-0.7353;0.0443;535.0;24.99;3.38;-36.92;335.06;-30.39;19.31;2.0;55.873524;-4.292516;202.93;NaN;8.39;148.69676;71.1;5 / 29;12011;2022-03-21 14:35:00:656
-6.6655;4.0699;5.3527;-1.8249;4.8783;8.3092;0.0463;1.3148;-0.6173;0.2445;0.9957;0.0321;535.0;23.94;4.11;-38.06;328.03;-29.83;12.39;2.0;55.873524;-4.292516;202.93;NaN;8.39;148.69676;71.1;5 / 29;12111;2022-03-21 14:35:00:756
-3.577;4.3131;13.4507;-3.3332;5.6048;7.3244;-0.3501;-0.1083;1.3223;-1.1156;-1.6855;1.0917;535.0;23.94;4.11;-38.06;328.03;-29.83;12.39;2.0;55.873524;-4.292516;202.93;NaN;8.39;148.69676;71.1;5 / 29;12212;2022-03-21 14:35:00:857
0.28;2.4969;8.2986;-2.4405;4.506;8.3612;-2.0447;-1.9355;-0.8318;-1.1156;-1.6855;1.0917;544.0;22.22;-7.56;-38.68;348.45;-34.86;24.47;2.0;55.873524;-4.292516;202.93;NaN;8.39;148.69676;71.1;5 / 29;12311;2022-03-21 14:35:00:956
2.1114;2.2265;11.8801;0.6095;5.0714;8.3714;0.9478;-1.1721;0.1068;-0.8028;-2.8192;0.7263;544.0;22.22;-7.56;-38.68;348.45;-34.86;24.47;2.0;55.873524;-4.292516;202.93;NaN;8.39;148.69676;71.1;5 / 29;12411;2022-03-21 14:35:01:056
0.2656;3.8246;10.3253;1.7835;4.0084;8.7705;0.6087;-1.5741;1.1893;-1.625;2.3336;0.0177;433.0;21.79;-6.28;-38.96;299.74;-31.14;-4.16;2.0;55.873524;-4.292516;202.93;NaN;8.39;148.69676;71.1;5 / 29;12511;2022-03-21 14:35:01:156
-0.1869;2.3378;12.0263;0.1869;2.4559;9.4923;-1.0513;0.6273;0.6002;1.1696;0.4577;0.5449;433.0;24.68;3.73;-40.56;299.74;-31.14;-4.16;2.0;55.873524;-4.292516;202.93;NaN;8.39;148.69676;71.1;5 / 29;12611;2022-03-21 14:35:01:256
-1.797;2.7078;8.5837;-0.3337;3.5017;9.1541;0.008;-1.614;-0.3152;1.1696;0.4577;0.5449;474.0;28.8;-6.0;-38.85;277.3;-14.5;-1.13;2.0;55.873524;-4.292516;202.93;NaN;8.39;148.69676;71.1;5 / 29;12711;2022-03-21 14:35:01:356
-3.9793;2.6276;8.9749;-1.3969;4.2526;8.7255;-2.6071;-1.502;0.0303;0.6531;1.3571;0.8648;474.0;28.8;-6.0;-38.85;277.3;-14.5;-1.13;2.0;55.873524;-4.292516;202.93;NaN;8.39;148.69676;71.1;5 / 29;12811;2022-03-21 14:35:01:456
-1.2248;1.4521;9.3604;-1.3969;4.2526;8.7255;-2.6071;-1.502;0.0303;0.4273;1.0442;1.4763;750.0;35.83;-1.89;-15.47;282.06;-25.7;9.1;2.0;55.873524;-4.292516;202.93;NaN;8.39;148.69676;71.1;5 / 29;12911;2022-03-21 14:35:01:556
-0.2767;2.9794;11.2469;-1.5265;4.8406;8.391;-0.0562;-3.1671;0.7523;-0.7029;-0.3082;1.2287;750.0;35.83;-1.89;-15.47;282.06;-25.7;9.1;2.0;55.873524;-4.292516;202.93;NaN;8.39;148.69676;71.1;5 / 29;13011;2022-03-21 14:35:01:656
0.6018;2.9782;9.2791;-0.9121;4.3419;8.7457;0.5671;-1.3093;3.3267;-0.7029;-0.3082;1.2287;658.0;29.85;15.41;0.28;298.0;-29.58;10.31;2.0;55.873524;-4.292516;202.93;NaN;8.39;148.69676;71.1;5 / 29;13111;2022-03-21 14:35:01:756
0.8222;1.0056;11.0877;0.9468;4.1006;8.8577;2.5074;-2.1435;-0.5454;-0.7136;-0.1095;0.2336;658.0;29.85;15.41;0.28;298.0;-29.58;10.31;2.0;55.873524;-4.292516;202.93;NaN;8.39;148.69676;71.1;5 / 29;13211;2022-03-21 14:35:01:856
-2.0509;5.4323;8.2268;0.7506;4.2637;8.7993;-2.085;-0.6256;0.3645;0.3378;-0.9462;-0.5676;595.0;29.01;42.96;0.53;322.44;-24.72;-6.1;2.0;55.873524;-4.292516;202.93;NaN;8.39;148.69676;71.1;5 / 29;13311;2022-03-21 14:35:01:956
2.2837;1.2843;7.6427;1.6211;3.9393;8.8331;-0.4482;-1.5652;-1.6684;0.3378;-0.9462;-0.5676;595.0;29.01;42.96;0.53;322.44;-24.72;-6.1;2.0;55.873524;-4.292516;202.93;NaN;8.39;148.69676;71.1;5 / 29;13411;2022-03-21 14:35:02:056
-2.2974;3.8151;10.9813;0.5835;3.6855;9.069;-2.4089;-0.2052;1.8388;-0.3531;0.9428;-0.275;595.0;23.03;41.18;-31.2;329.62;-23.68;-10.4;2.0;55.873524;-4.292516;202.93;NaN;8.39;148.69676;71.1;5 / 29;13512;2022-03-21 14:35:02:157
1.1704;-0.2022;12.6117;0.5835;3.6855;9.069;-2.4089;-0.2052;1.8388;-0.0956;-0.4653;0.2608;595.0;23.03;41.18;-31.2;329.62;-23.68;-10.4;2.0;55.873524;-4.292516;202.93;NaN;8.39;148.69676;71.1;5 / 29;13611;2022-03-21 14:35:02:256
1.9786;1.5682;10.8987;1.1526;3.6753;9.0186;1.4952;-4.4176;2.2368;-0.95;-1.4572;-2.0674;547.0;23.7;38.33;-32.68;330.99;-22.07;-3.68;2.0;55.873524;-4.292516;202.93;NaN;8.39;148.69676;71.1;5 / 29;13711;2022-03-21 14:35:02:356
3.4663;1.0235;10.0965;1.9657;3.3535;9.0033;3.292;-2.9889;0.6388;-0.0649;2.233;-2.528;547.0;23.7;38.33;-32.68;330.99;-22.07;-3.68;2.0;55.873524;-4.292516;202.93;NaN;8.39;148.69676;71.1;5 / 29;13811;2022-03-21 14:35:02:456
-2.2842;1.5562;12.6105;-0.2596;3.5543;9.1362;-4.5773;0.8481;-0.1154;-0.0649;2.233;-2.528;630.0;8.96;-2.66;-25.69;289.97;-20.0;-12.32;2.0;55.873524;-4.292516;202.93;NaN;8.39;148.69676;71.1;5 / 29;13912;2022-03-21 14:35:02:557
-5.1141;0.5231;9.2252;-1.8535;2.74;9.2319;-2.6543;-0.9212;0.1837;1.0995;-2.0718;-1.9726;630.0;8.96;-2.66;-25.69;289.97;-20.0;-12.32;2.0;55.873524;-4.292516;202.93;NaN;8.39;148.69676;71.1;5 / 29;14012;2022-03-21 14:35:02:657
-5.1356;2.6671;6.9652;-3.3879;3.5612;8.4859;-1.6535;-2.845;0.2426;1.5654;0.7042;-1.5931;630.0;12.94;0.94;-26.89;320.68;-16.22;11.35;2.0;55.873524;-4.292516;202.93;NaN;8.39;148.69676;71.1;5 / 29;14114;2022-03-21 14:35:02:759
-6.9287;5.9806;8.5884;-4.0359;4.0601;7.9623;-0.7345;-0.9088;-1.4673;0.2216;0.1081;-0.6454;630.0;12.94;0.94;-26.89;320.68;-16.22;11.35;2.0;55.873524;-4.292516;202.93;NaN;8.39;148.69676;71.1;5 / 29;14211;2022-03-21 14:35:02:856
-3.4131;6.0009;7.6092;-4.374;4.3286;7.6355;-2.8737;2.7932;-1.0275;0.2216;0.1081;-0.6454;630.0;18.11;-3.36;-32.87;354.94;-24.46;26.88;2.0;55.873524;-4.292516;202.93;NaN;8.39;148.69676;71.1;5 / 29;14311;2022-03-21 14:35:02:956
-2.4673;5.6321;8.9186;-4.374;4.3286;7.6355;-2.8737;2.7932;-1.0275;-0.864;-0.4621;1.9911;630.0;18.11;-3.36;-32.87;354.94;-24.46;26.88;2.0;55.873524;-4.292516;202.93;NaN;8.39;148.69676;71.1;5 / 29;14412;2022-03-21 14:35:03:057
-1.5003;3.4223;8.2866;-2.7453;4.4973;8.2709;-0.3839;0.4919;-1.2663;0.1823;-1.0033;0.7885;461.0;21.53;1.86;-39.82;2.07;-26.19;29.81;2.0;55.873524;-4.292516;202.93;NaN;8.39;148.69676;71.1;5 / 29;14512;2022-03-21 14:35:03:157
-1.3277;4.0352;9.9218;-1.241;4.7821;8.4712;-0.5187;-0.7308;0.6053;0.0101;0.0628;0.6593;461.0;21.53;1.86;-39.82;2.07;-26.19;29.81;2.0;55.873524;-4.292516;202.93;NaN;8.39;148.69676;71.1;5 / 29;14611;2022-03-21 14:35:03:256
0.026;3.9694;6.868;-0.1846;4.8998;8.4929;-1.0063;-0.8928;1.3729;0.0101;0.0628;0.6593;461.0;21.21;6.11;-38.81;329.37;-29.19;8.33;2.0;55.873524;-4.292516;202.93;NaN;8.39;148.69676;71.1;5 / 29;14712;2022-03-21 14:35:03:357
0.111;1.4064;10.9729;-0.0248;4.3979;8.7652;0.207;-0.5121;-1.1008;-0.9929;-0.0706;0.4274;461.0;21.21;6.11;-38.81;329.37;-29.19;8.33;2.0;55.873524;-4.292516;202.93;NaN;8.39;148.69676;71.1;5 / 29;14811;2022-03-21 14:35:03:456
-1.0466;1.6831;9.6619;-0.666;3.5439;9.1196;-0.9446;-2.6184;0.5724;-1.0226;-0.0643;0.3923;427.0;17.79;4.03;-40.5;320.29;-26.65;0.16;2.0;55.873524;-4.292516;202.93;NaN;8.39;148.69676;71.1;5 / 29;14911;2022-03-21 14:35:03:556
0.1241;3.6568;10.3205;0.3119;2.2676;9.5358;-0.5785;0.5651;1.6475;-1.0226;-0.0643;0.3923;427.0;17.79;4.03;-40.5;320.29;-26.65;0.16;2.0;55.873524;-4.292516;202.93;NaN;8.39;148.69676;71.1;5 / 29;15011;2022-03-21 14:35:03:656
0.1516;2.4108;6.5007;0.8975;1.7566;9.6062;-0.7667;1.6949;-1.999;-0.5905;-0.3259;0.3806;393.0;12.45;3.84;-43.74;316.12;-13.37;-1.87;2.0;55.873524;-4.292516;202.93;NaN;8.39;148.69676;71.1;5 / 29;15111;2022-03-21 14:35:03:756
0.5276;-0.6643;7.8042;0.8975;1.7566;9.6062;-0.7667;1.6949;-1.999;0.1451;-0.8333;-0.0762;393.0;12.45;3.84;-43.74;316.12;-13.37;-1.87;2.0;55.873524;-4.292516;202.93;NaN;8.39;148.69676;71.1;5 / 29;15212;2022-03-21 14:35:03:857
1.5141;-1.9968;8.9533;1.6791;1.9205;9.469;-0.9362;-2.3378;-0.1917;-0.7013;-0.6536;-0.4384;393.0;11.64;9.53;-43.65;317.47;-10.32;-5.34;2.0;55.873524;-4.292516;202.93;NaN;8.39;148.69676;71.1;5 / 29;15312;2022-03-21 14:35:03:957
2.9779;-1.8039;12.1304;1.7506;1.4064;9.5461;0.5807;-3.3887;0.7853;-0.6962;1.0998;-0.1032;311.0;11.64;9.53;-43.65;317.47;-10.32;-5.34;2.0;55.873524;-4.292516;202.93;NaN;8.39;148.69676;71.1;5 / 29;15412;2022-03-21 14:35:04:057
1.6839;-2.8801;15.1241;1.2869;0.6393;9.7008;2.1708;-2.1018;3.6125;-0.6962;1.0998;-0.1032;311.0;8.79;14.61;-43.78;321.12;-8.25;-10.39;2.0;55.873524;-4.292516;202.93;NaN;8.39;148.69676;71.1;5 / 29;15512;2022-03-21 14:35:04:157
0.6676;-2.3629;10.4797;0.0643;-0.4517;9.796;0.8029;-2.5355;3.2356;-0.4675;1.4187;0.9604;373.0;8.79;14.61;-43.78;321.12;-8.25;-10.39;2.0;55.873524;-4.292516;202.93;NaN;8.39;148.69676;71.1;5 / 29;15611;2022-03-21 14:35:04:256
0.9646;-0.4454;9.7615;-0.7904;-0.0275;9.7747;2.9193;-0.3686;0.218;1.557;0.7703;-0.7912;373.0;7.78;19.16;-42.62;334.03;2.64;-0.38;2.0;55.873524;-4.292516;202.93;NaN;8.39;148.69676;71.1;5 / 29;15711;2022-03-21 14:35:04:356
-3.4765;-0.9852;7.6403;-2.025;1.8084;9.4234;-1.251;-2.4656;-2.1361;-0.2842;0.4908;0.3596;529.0;7.78;19.16;-42.62;334.03;2.64;-0.38;2.0;55.873524;-4.292516;202.93;NaN;8.39;148.69676;71.1;5 / 29;15811;2022-03-21 14:35:04:456
-3.2707;0.8246;8.1909;-2.025;1.8084;9.4234;-1.251;-2.4656;-2.1361;-0.2842;0.4908;0.3596;529.0;14.25;21.6;-40.29;349.8;-10.63;12.13;2.0;55.873524;-4.292516;202.93;NaN;8.39;148.69676;71.1;5 / 29;15911;2022-03-21 14:35:04:556
-2.988;2.6169;9.6224;-2.4598;1.8468;9.3118;-0.5238;-1.0961;-0.0118;-0.4771;0.9725;0.4197;529.0;14.25;21.6;-40.29;349.8;-10.63;12.13;2.0;55.873524;-4.292516;202.93;NaN;8.39;148.69676;71.1;5 / 29;16011;2022-03-21 14:35:04:656
-1.5757;2.2576;8.4864;-3.1033;1.3164;9.2091;-0.5587;0.0114;-1.6157;0.2614;-0.2564;0.2463;469.0;20.44;21.66;-39.56;343.01;-10.85;14.8;2.0;55.873524;-4.292516;202.93;NaN;8.39;148.69676;71.1;5 / 29;16111;2022-03-21 14:35:04:756
-1.7372;1.6388;8.921;-2.6588;1.6118;9.3007;0.5737;0.9554;-1.7957;0.13;-0.3575;0.0174;469.0;20.44;21.66;-39.56;343.01;-10.85;14.8;2.0;55.873524;-4.292516;202.93;NaN;8.39;148.69676;71.1;5 / 29;16212;2022-03-21 14:35:04:857
-0.6084;1.7644;9.2025;-2.1128;1.9033;9.3853;0.2845;-0.2139;-0.8502;0.13;-0.3575;0.0174;469.0;23.94;18.32;-39.26;333.7;-9.46;15.95;2.0;55.873524;-4.292516;202.93;NaN;8.39;148.69676;71.1;5 / 29;16311;2022-03-21 14:35:04:956
-0.6395;0.6093;8.4015;-1.4898;1.8286;9.5188;1.0063;-0.0179;-0.1718;-0.3184;-0.6083;-0.0661;453.0;23.94;18.32;-39.26;333.7;-9.46;15.95;2.0;55.873524;-4.292516;202.93;NaN;8.39;148.69676;71.1;5 / 29;16411;2022-03-21 14:35:05:056
0.5121;-1.1946;9.2827;-0.8842;0.8555;9.7292;0.081;-1.3235;-1.1179;-0.9803;-0.9282;0.2089;453.0;24.09;17.04;-39.23;324.27;-10.75;8.9;2.0;55.873524;-4.292516;202.93;NaN;8.39;148.69676;71.1;5 / 29;16512;2022-03-21 14:35:05:157
-0.8106;-1.6232;9.4609;-0.3131;-0.2065;9.7995;0.7577;-1.1928;-0.799;-0.9803;-0.9282;0.2089;453.0;24.09;17.04;-39.23;324.27;-10.75;8.9;2.0;55.873524;-4.292516;202.93;NaN;8.39;148.69676;71.1;5 / 29;16612;2022-03-21 14:35:05:257
-1.098;-0.8979;12.5435;-0.3131;-0.2065;9.7995;0.7577;-1.1928;-0.799;-0.617;-0.1402;-0.2366;453.0;20.03;18.6;-40.11;314.11;1.21;1.83;2.0;55.873524;-4.292516;202.93;NaN;8.39;148.69676;71.1;5 / 29;16712;2022-03-21 14:35:05:357
-1.092;3.1735;11.2002;0.1552;-0.7575;9.7761;-1.1053;-0.4556;0.7325;-0.1396;-0.7089;0.3102;453.0;20.03;18.6;-40.11;314.11;1.21;1.83;2.0;55.873524;-4.292516;202.93;NaN;8.39;148.69676;71.1;5 / 29;16811;2022-03-21 14:35:05:456
-2.1742;1.1228;12.9455;0.523;-0.8035;9.7597;-2.0037;2.9692;2.1595;0.4749;0.4113;-0.2752;513.0;15.08;22.58;-39.82;321.79;4.43;-0.91;2.0;55.873524;-4.292516;202.93;NaN;8.39;148.69676;71.1;5 / 29;16913;2022-03-21 14:35:05:558
-1.608;-2.4371;7.2356;-0.3083;-0.3736;9.7947;-1.7875;1.5392;2.911;0.894;1.2171;0.5004;513.0;15.08;22.58;-39.82;321.79;4.43;1.8;2.0;55.873524;-4.292516;202.93;NaN;8.39;148.69676;71.1;5 / 29;17012;2022-03-21 14:35:05:657
-0.2408;0.3087;10.2365;-2.1938;0.2903;9.5537;1.7025;-1.5582;-0.7327;0.894;1.2171;0.5004;904.0;12.88;25.95;-38.34;334.3;2.18;1.8;2.0;55.873524;-4.292516;202.93;NaN;8.39;148.69676;71.1;5 / 29;17111;2022-03-21 14:35:05:756
-3.7795;0.8797;8.0175;-3.2857;0.9826;9.1874;0.381;-0.3803;0.6207;0.7709;0.9685;-0.2317;904.0;17.98;24.04;-34.57;349.48;-5.75;19.68;2.0;55.873524;-4.292516;202.93;NaN;8.39;148.69676;71.1;5 / 29;17211;2022-03-21 14:35:05:856
-4.3301;1.5885;7.2284;-3.8047;1.2894;8.9461;-0.5164;-0.0188;-2.0793;-0.2297;-0.0086;0.4534;904.0;17.98;24.04;-34.57;349.48;-5.75;19.68;2.0;55.873524;-4.292516;202.93;NaN;8.39;148.69676;71.1;5 / 29;17311;2022-03-21 14:35:05:956
-3.7005;0.8533;9.4286;-3.2619;0.8851;9.2058;-0.5868;0.35;-0.0726;-0.2663;-0.5777;-0.383;1032.0;22.41;21.69;-33.39;349.48;-5.75;19.68;2.0;55.873524;-4.292516;202.93;NaN;8.39;148.69676;71.1;5 / 29;17411;2022-03-21 14:35:06:056
-3.8824;-0.2237;8.6626;-3.2619;0.8851;9.2058;-0.5868;0.35;-0.0726;-0.2663;-0.5777;-0.383;1032.0;26.1;20.14;-32.46;329.46;-5.18;19.51;2.0;55.873524;-4.292516;202.93;NaN;8.39;148.69676;71.1;5 / 29;17511;2022-03-21 14:35:06:156
-4.1276;0.4884;9.5566;-3.0479;0.8326;9.2837;-0.8086;-0.9252;-0.4527;0.0067;-0.578;-0.4;829.0;26.1;20.14;-32.46;329.46;-5.18;19.51;2.0;55.873524;-4.292516;202.93;NaN;8.39;148.69676;71.1;5 / 29;17611;2022-03-21 14:35:06:256
-2.9629;0.0491;9.746;-2.4461;0.729;9.4687;-1.4842;-0.1727;0.0965;0.0693;-0.606;-0.071;829.0;26.96;18.92;-32.59;325.45;-4.87;18.18;2.0;55.873524;-4.292516;202.93;NaN;8.39;148.69676;71.1;5 / 29;17711;2022-03-21 14:35:06:356
-1.5123;0.1735;8.4805;-1.8913;0.7891;9.5901;-0.1436;-0.9231;0.3182;0.0603;-0.2993;0.5302;692.0;26.96;18.92;-32.59;325.45;-4.87;18.18;2.0;55.873524;-4.292516;202.93;NaN;8.39;148.69676;71.1;5 / 29;17812;2022-03-21 14:35:06:457
-0.5438;1.8039;9.1439;-1.5377;0.9356;9.64;0.6446;-0.0762;-1.0869;0.0603;-0.2993;0.5302;692.0;24.47;18.9;-33.45;321.94;-4.62;11.16;2.0;55.873524;-4.292516;202.93;NaN;8.39;148.69676;71.1;5 / 29;17913;2022-03-21 14:35:06:558
-1.6606;0.8689;10.2162;-1.1877;0.4334;9.7248;-0.2344;0.9213;0.0162;-0.6174;-0.2277;-0.2685;692.0;24.47;18.9;-33.45;321.94;-4.62;11.16;2.0;55.873524;-4.292516;202.93;NaN;8.39;148.69676;71.1;5 / 29;18011;2022-03-21 14:35:06:656
-2.5355;1.1958;10.3552;-0.9745;0.1824;9.7564;-1.4531;0.8871;0.6644;0.0417;-0.5617;0.0796;602.0;20.79;19.74;-35.49;322.49;-2.53;6.96;2.0;55.873524;-4.292516;202.93;NaN;8.39;148.69676;71.1;5 / 29;18111;2022-03-21 14:35:06:756
-1.4198;0.2094;10.9334;-0.9745;0.1824;9.7564;-1.4531;0.8871;0.6644;0.9413;-0.9882;0.2304;602.0;20.79;19.74;-35.49;322.49;-2.53;6.96;2.0;55.873524;-4.292516;202.93;NaN;8.39;148.69676;71.1;5 / 29;18211;2022-03-21 14:35:06:856
0.2764;0.8342;9.3652;-0.4167;1.0505;9.7413;-0.3152;-0.3797;0.7886;0.9413;-0.9882;0.2304;602.0;17.79;20.49;-36.81;325.51;-1.07;5.7;2.0;55.873524;-4.292516;202.93;NaN;8.39;148.69676;71.1;5 / 29;18311;2022-03-21 14:35:06:956
-0.0936;1.1743;8.8301;-0.0444;1.9209;9.6166;1.1902;-0.9886;0.6267;0.3621;0.5262;-0.0296;602.0;17.79;20.49;-36.81;325.51;-1.07;5.7;2.0;55.873524;-4.292516;202.93;NaN;8.39;148.69676;71.1;5 / 29;18411;2022-03-21 14:35:07:056
-1.2571;1.3478;8.9605;-0.5377;2.2278;9.5351;0.9484;-1.0432;-1.2803;0.1949;0.5159;-0.0512;531.0;15.51;18.09;-38.29;327.78;-11.3;0.26;2.0;55.873524;-4.292516;202.93;NaN;8.39;148.69676;71.1;5 / 29;18511;2022-03-21 14:35:07:156
-0.8453;1.4868;9.0335;-0.968;2.3837;9.4631;-0.0782;-0.9949;-0.7972;0.3552;-0.1503;0.0476;531.0;15.51;18.09;-38.29;327.78;-11.3;0.26;2.0;55.873524;-4.292516;202.93;NaN;8.39;148.69676;71.1;5 / 29;18611;2022-03-21 14:35:07:256
-1.0442;1.2724;7.919;-0.7839;2.6949;9.3965;0.1177;-1.0878;-0.2499;0.3552;-0.1503;0.0476;531.0;15.9;11.19;-38.38;329.25;-14.07;5.84;2.0;55.873524;-4.292516;202.93;NaN;8.39;148.69676;71.1;5 / 29;18711;2022-03-21 14:35:07:356
-1.1961;2.1918;8.5789;-0.8945;2.7411;9.3732;0.1308;-1.1756;-1.6831;0.0203;0.1442;0.038;531.0;15.9;11.19;-38.38;329.25;-14.07;5.84;2.0;55.873524;-4.292516;202.93;NaN;8.39;148.69676;71.1;5 / 29;18811;2022-03-21 14:35:07:456
-1.6499;0.7301;10.9525;-1.2838;2.0256;9.5089;0.2908;0.406;0.3145;-1.1011;0.4832;-0.4496;531.0;17.06;7.37;-38.46;323.12;-16.23;5.45;2.0;55.873524;-4.292516;202.93;NaN;8.39;148.69676;71.1;5 / 29;18911;2022-03-21 14:35:07:556
-2.8134;1.4052;9.7328;-1.2838;2.0256;9.5089;0.2908;0.406;0.3145;0.2385;0.3763;-0.1704;531.0;17.06;7.37;-38.46;323.12;-16.23;5.45;2.0;55.873524;-4.292516;202.93;NaN;8.39;148.69676;71.1;5 / 29;19011;2022-03-21 14:35:07:656
-4.0558;1.6161;9.868;-0.9044;2.0637;9.5443;-0.5042;-0.283;1.7509;0.2385;0.3763;-0.1704;531.0;18.15;7.37;-37.99;319.86;-11.92;7.69;2.0;55.873524;-4.292516;202.93;NaN;8.39;148.69676;71.1;5 / 29;19111;2022-03-21 14:35:07:756
-1.3265;1.6914;5.7718;-1.4675;1.9457;9.499;-2.4926;-0.2788;0.3912;-0.0365;0.9896;0.7098;632.0;18.15;7.37;-37.99;319.86;-11.92;7.69;2.0;55.873524;-4.292516;202.93;NaN;8.39;148.69676;71.1;5 / 29;19211;2022-03-21 14:35:07:856
-0.3787;1.4809;8.4266;-2.1582;1.7949;9.3963;0.7431;-0.0472;-3.4252;-0.8074;-1.076;0.54;679.0;18.84;8.04;-37.43;320.05;-11.44;8.78;2.0;55.873524;-4.292516;202.93;NaN;8.39;148.69676;71.1;5 / 29;19311;2022-03-21 14:35:07:956
-0.3057;1.1073;9.2336;-0.7556;1.2413;9.6984;0.4055;-0.0595;-0.3035;-1.3374;-0.6507;0.0687;679.0;18.84;8.04;-37.43;320.05;-11.44;8.78;2.0;55.873524;-4.292516;202.93;NaN;8.39;148.69676;71.1;5 / 29;19412;2022-03-21 14:35:08:057
0.5468;-0.7648;11.8717;0.2509;-0.0107;9.8034;0.2596;0.2556;-0.2461;-1.3374;-0.6507;0.0687;456.0;19.28;8.44;-37.57;308.93;-7.27;4.46;2.0;55.873524;-4.292516;202.93;NaN;8.39;148.69676;71.1;5 / 29;19511;2022-03-21 14:35:08:156
2.6321;1.1503;11.0853;0.7457;-0.4911;9.7659;1.5531;1.2433;1.6656;-0.295;-0.0489;-0.2094;456.0;19.28;8.44;-37.57;308.93;-7.27;4.46;2.0;55.873524;-4.292516;202.93;NaN;8.39;148.69676;71.1;5 / 29;19611;2022-03-21 14:35:08:256
0.7238;0.996;11.9088;0.8031;-1.0592;9.7162;-1.0975;1.5646;1.7293;-0.1003;0.7735;0.4775;456.0;18.09;12.06;-36.82;296.17;2.87;-4.37;2.0;55.873524;-4.292516;202.93;NaN;8.39;148.69676;71.1;5 / 29;19711;2022-03-21 14:35:08:356
0.5097;-0.0395;6.2731;0.8031;-1.0592;9.7162;-1.0975;1.5646;1.7293;-0.4537;-0.2686;-0.0283;485.0;18.09;12.06;-36.82;296.17;2.87;-4.37;2.0;55.873524;-4.292516;202.93;NaN;8.39;148.69676;71.1;5 / 29;19811;2022-03-21 14:35:08:456
0.2584;-0.9553;9.4274;-0.1053;-0.8568;9.7686;0.7991;0.856;-3.1325;-0.4537;-0.2686;-0.0283;485.0;15.24;16.22;-35.48;304.54;6.2;-4.73;2.0;55.873524;-4.292516;202.93;NaN;8.39;148.69676;71.1;5 / 29;19911;2022-03-21 14:35:08:556
-1.1171;-1.2257;8.5415;-0.0028;-1.2475;9.727;0.7131;0.3952;-0.8421;0.1833;0.5429;0.2155;485.0;15.24;16.22;-35.48;304.54;6.2;-4.73;2.0;55.873524;-4.292516;202.93;NaN;8.39;148.69676;71.1;5 / 29;20011;2022-03-21 14:35:08:656
-0.594;-2.3498;10.8604;0.4404;-0.1591;9.7955;-0.3497;-1.7269;0.6736;1.4457;-0.2306;0.3821;485.0;9.68;18.47;-28.5;324.8;7.31;0.02;2.0;55.873524;-4.292516;202.93;NaN;8.39;148.69676;71.1;5 / 29;20111;2022-03-21 14:35:08:756
0.5838;0.2106;11.2373;0.989;0.9777;9.7075;-0.8289;-2.204;-0.0262;-0.2781;-0.2052;-0.2411;429.0;9.68;18.47;-28.5;324.8;7.31;0.02;2.0;55.873524;-4.292516;202.93;NaN;8.39;148.69676;71.1;5 / 29;20211;2022-03-21 14:35:08:856
-0.1606;-0.1711;11.0327;1.1617;0.9399;9.6921;-0.9019;-1.5645;1.6887;-0.2781;-0.2052;-0.2411;429.0;11.57;14.49;-28.65;318.28;-5.72;-5.82;2.0;55.873524;-4.292516;202.93;NaN;8.39;148.69676;71.1;5 / 29;20311;2022-03-21 14:35:08:956
2.0061;0.5423;9.4896;2.9613;0.1805;9.3471;0.1788;0.6843;0.1892;-1.4714;-2.0781;0.1843;429.0;11.57;14.49;-28.65;318.28;-5.72;-5.82;2.0;55.873524;-4.292516;202.93;NaN;8.39;148.69676;71.1;5 / 29;20411;2022-03-21 14:35:09:056
4.0588;-2.7963;12.347;2.9613;0.1805;9.3471;0.1788;0.6843;0.1892;-0.0762;0.6467;-0.3505;419.0;9.66;9.69;-29.46;299.74;-1.05;-17.58;2.0;55.873524;-4.292516;202.93;NaN;8.39;148.69676;71.1;5 / 29;20511;2022-03-21 14:35:09:156
1.5942;0.0754;12.1161;2.7127;0.1779;9.4223;0.6853;-1.6565;0.701;-0.0295;0.4426;-0.0075;419.0;9.66;9.69;-29.46;299.74;-1.05;-17.58;2.0;55.873524;-4.292516;202.93;NaN;8.39;148.69676;71.1;5 / 29;20611;2022-03-21 14:35:09:256
1.4339;0.2919;8.5705;2.1204;0.235;9.5718;-0.0544;-0.0288;-0.2426;-0.0295;0.4426;-0.0075;393.0;4.95;7.74;-30.19;302.96;-1.04;-16.06;2.0;55.873524;-4.292516;202.93;NaN;8.39;148.69676;71.1;5 / 29;20711;2022-03-21 14:35:09:356
-0.0302;0.0969;9.807;1.1082;0.191;9.742;0.0619;-0.0569;0.2623;0.0121;1.6453;-0.0261;393.0;4.95;7.74;-30.19;302.96;-1.04;-16.06;2.0;55.873524;-4.292516;202.93;NaN;8.39;148.69676;71.1;5 / 29;20811;2022-03-21 14:35:09:456
-0.0697;0.0096;9.9206;0.0529;0.1807;9.8048;-0.0235;-0.0274;0.3395;-0.0011;-0.0067;0.0011;393.0;4.05;9.83;-29.61;325.13;-1.12;-6.49;2.0;55.873524;-4.292516;202.93;NaN;8.39;148.69676;71.1;5 / 29;20911;2022-03-21 14:35:09:556
-0.0589;0.2393;9.9087;0.0554;0.178;9.8049;-0.1234;-0.0358;0.0334;-0.0015;-0.0038;0.0011;457.0;4.05;9.83;-29.61;325.13;-1.12;-6.49;2.0;55.873524;-4.292516;202.93;NaN;8.39;148.69676;71.1;5 / 29;21012;2022-03-21 14:35:09:657
-0.0912;0.1137;9.7831;0.055;0.1745;9.8049;-0.1233;-0.0304;-0.0219;-0.0015;-0.0038;0.0011;457.0;7.91;10.95;-28.78;324.68;-1.04;-0.32;2.0;55.873524;-4.292516;202.93;NaN;8.39;148.69676;71.1;5 / 29;21111;2022-03-21 14:35:09:756
-0.0984;0.0395;9.7113;0.0428;0.1687;9.8051;-0.1082;-0.0285;0.0098;-0.0014;-0.0029;8.0E-4;457.0;7.91;10.95;-28.78;324.68;-1.04;-0.32;2.0;55.873524;-4.292516;202.93;NaN;8.39;148.69676;71.1;5 / 29;21211;2022-03-21 14:35:09:856
-0.0805;0.2034;9.9183;0.0428;0.1687;9.8051;-0.1082;-0.0285;0.0098;-0.0015;-0.0034;5.0E-4;457.0;11.27;10.89;-27.99;315.91;-0.99;-0.25;2.0;55.873524;-4.292516;202.93;NaN;8.39;148.69676;71.1;5 / 29;21311;2022-03-21 14:35:09:956
-0.0685;0.195;9.9434;0.0235;0.1589;9.8053;-0.0929;-0.0358;-0.0306;-6.0E-4;-0.004;6.0E-4;457.0;11.27;10.89;-27.99;315.91;-0.99;-0.25;2.0;55.873524;-4.292516;202.93;NaN;8.39;148.69676;71.1;5 / 29;21411;2022-03-21 14:35:10:056
-0.0697;0.1101;9.7998;0.008;0.1542;9.8054;-0.0762;-0.0167;1.0E-4;-6.0E-4;-0.004;6.0E-4;489.0;11.66;10.43;-27.77;310.9;-0.93;-0.14;2.0;55.873524;-4.292516;202.93;NaN;8.39;148.69676;71.1;5 / 29;21511;2022-03-21 14:35:10:156
-0.0422;0.1651;9.8441;-0.005;0.1483;9.8055;-0.0563;0.0;0.0085;-0.0018;-0.0029;0.0012;489.0;11.57;10.22;-27.77;311.01;-0.87;0.03;2.0;55.873524;-4.292516;202.93;NaN;8.39;148.69676;71.1;5 / 29;21613;2022-03-21 14:35:10:258
-0.0314;0.1328;9.8393;-0.0151;0.1445;9.8056;-0.0454;-0.0021;9.0E-4;-0.002;-0.0027;0.0011;489.0;11.57;10.22;-27.77;311.01;-0.87;0.03;2.0;55.873524;-4.292516;202.93;NaN;8.39;148.69676;71.1;5 / 29;21711;2022-03-21 14:35:10:356
-0.0541;0.0921;9.7962;-0.0233;0.1404;9.8056;-0.0428;-4.0E-4;0.0045;-0.0017;-0.0027;8.0E-4;489.0;11.57;10.22;-27.77;311.01;-0.87;0.03;2.0;55.873524;-4.292516;202.93;NaN;8.39;148.69676;71.1;5 / 29;21811;2022-03-21 14:35:10:456
-0.0517;0.1603;9.8596;-0.0296;0.1378;9.8056;-0.0372;-0.0106;-0.0152;-0.0017;-0.0027;8.0E-4;489.0;12.0;9.98;-28.14;311.07;-0.82;0.14;2.0;55.873524;-4.292516;202.93;NaN;8.39;148.69676;71.1;5 / 29;21911;2022-03-21 14:35:10:556
-0.0625;0.1376;9.8201;-0.035;0.1363;9.8056;-0.0307;-0.0011;-0.0065;-0.0012;-0.0023;9.0E-4;489.0;12.0;9.98;-28.14;311.07;-0.82;0.14;2.0;55.873524;-4.292516;202.93;NaN;8.39;148.69676;71.1;5 / 29;22011;2022-03-21 14:35:10:656
-0.0852;0.1149;9.7364;-0.035;0.1363;9.8056;-0.0307;-0.0011;-0.0065;-3.0E-4;-0.0037;5.0E-4;489.0;12.09;10.16;-27.82;311.12;-0.8;0.2;2.0;55.873524;-4.292516;202.93;NaN;8.39;148.69676;71.1;5 / 29;22111;2022-03-21 14:35:10:756
-0.0709;0.1663;9.8728;-0.0367;0.1353;9.8056;-0.0209;-0.0012;-0.0157;-9.0E-4;-0.0035;6.0E-4;489.0;12.09;10.16;-27.82;311.12;-0.8;0.2;2.0;55.873524;-4.292516;202.93;NaN;8.39;148.69676;71.1;5 / 29;22212;2022-03-21 14:35:10:857
-0.0805;0.1244;9.8058;-0.04;0.1344;9.8056;-0.0272;0.0116;0.0068;-9.0E-4;-0.0035;6.0E-4;489.0;12.13;10.16;-27.9;311.13;-0.79;0.21;2.0;55.873524;-4.292516;202.93;NaN;8.39;148.69676;71.1;5 / 29;22311;2022-03-21 14:35:10:956
-0.0661;0.1268;9.8034;-0.0407;0.1348;9.8056;-0.0189;0.0016;-0.0019;-5.0E-4;-0.0032;0.0011;489.0;12.13;10.16;-27.9;311.13;-0.79;0.21;2.0;55.873524;-4.292516;202.93;NaN;8.39;148.69676;71.1;5 / 29;22412;2022-03-21 14:35:11:057
-0.0757;0.1304;9.8213;-0.0412;0.1345;9.8056;-0.0152;0.0052;-0.004;-0.0011;-0.0031;0.0011;489.0;12.06;10.28;-28.11;311.15;-0.79;0.24;2.0;55.873524;-4.292516;202.93;NaN;8.39;148.69676;71.1;5 / 29;22512;2022-03-21 14:35:11:157
-0.0458;0.1591;9.874;-0.0426;0.1341;9.8056;-0.019;3.0E-4;-0.002;-0.0011;-0.0031;0.0011;489.0;12.06;10.28;-28.11;311.15;-0.79;0.24;2.0;55.873524;-4.292516;202.93;NaN;8.39;148.69676;71.1;5 / 29;22611;2022-03-21 14:35:11:256
-0.0517;0.1292;9.8297;-0.0435;0.1345;9.8056;-0.0154;0.0155;0.003;-0.0014;-0.0031;8.0E-4;489.0;11.81;10.54;-28.18;313.78;-0.78;0.25;2.0;55.873524;-4.292516;202.93;NaN;8.39;148.69676;71.1;5 / 29;22711;2022-03-21 14:35:11:356
-0.0422;0.1388;9.8405;-0.0435;0.1345;9.8056;-0.0154;0.0155;0.003;-0.0017;-0.0035;6.0E-4;489.0;11.81;10.54;-28.18;313.78;-0.78;0.25;2.0;55.873524;-4.292516;202.93;NaN;8.39;148.69676;71.1;5 / 29;22811;2022-03-21 14:35:11:456
-0.0613;0.1292;9.8034;-0.0443;0.1355;9.8056;-0.0129;0.0066;0.0012;-0.0018;-0.0027;8.0E-4;489.0;11.61;10.35;-28.11;311.17;-0.79;0.25;2.0;55.873524;-4.292516;202.93;NaN;8.39;148.69676;71.1;5 / 29;22912;2022-03-21 14:35:11:557
-0.0446;0.1603;9.8656;-0.0451;0.1344;9.8056;-0.0189;0.0048;0.005;-9.0E-4;-0.0024;8.0E-4;489.0;11.61;10.35;-28.11;311.17;-0.79;0.25;2.0;55.873524;-4.292516;202.93;NaN;8.39;148.69676;71.1;5 / 29;23011;2022-03-21 14:35:11:656
-0.0565;0.1519;9.8453;-0.0462;0.1339;9.8056;-0.0162;0.0038;-0.0078;-9.0E-4;-0.0024;8.0E-4;489.0;11.49;9.96;-28.54;313.74;-0.79;0.26;2.0;55.873524;-4.292516;202.93;NaN;8.39;148.69676;71.1;5 / 29;23111;2022-03-21 14:35:11:756
-0.0577;0.146;9.8369;-0.0463;0.1343;9.8056;-0.0121;0.0081;-0.0021;-0.0017;-0.0027;8.0E-4;489.0;11.49;9.96;-28.54;313.74;-0.79;0.26;2.0;55.873524;-4.292516;202.93;NaN;8.39;148.69676;71.1;5 / 29;23211;2022-03-21 14:35:11:856
-0.0781;0.1005;9.7137;-0.0464;0.1344;9.8056;-0.0069;0.0093;0.0086;-0.0055;5.0E-4;3.0E-4;489.0;11.34;9.88;-28.52;313.74;-0.78;0.27;2.0;55.873524;-4.292516;202.93;NaN;8.39;148.69676;71.1;5 / 29;23311;2022-03-21 14:35:11:956
-0.1116;0.1041;9.8596;-0.0508;0.1285;9.8057;-0.0136;-0.0207;-0.0777;-0.0015;-0.0032;8.0E-4;489.0;11.34;9.88;-28.52;313.74;-0.78;0.27;2.0;55.873524;-4.292516;202.93;NaN;8.39;148.69676;71.1;5 / 29;23411;2022-03-21 14:35:12:056
-0.0864;0.1675;9.8261;-0.0515;0.1281;9.8057;-0.0149;0.0207;0.0106;-0.0015;-0.0032;8.0E-4;489.0;11.27;10.37;-28.41;313.68;-0.75;0.3;2.0;55.873524;-4.292516;202.93;NaN;8.39;148.69676;71.1;5 / 29;23511;2022-03-21 14:35:12:156
-0.0769;0.1208;9.8094;-0.0515;0.1281;9.8057;-0.0149;0.0207;0.0106;-0.0011;-0.0026;5.0E-4;489.0;11.27;10.37;-28.41;313.68;-0.75;0.3;2.0;55.873524;-4.292516;202.93;NaN;8.39;148.69676;71.1;5 / 29;23612;2022-03-21 14:35:12:257
-0.0482;0.1208;9.8297;-0.0501;0.128;9.8057;-0.0055;0.0013;-0.0025;-0.0015;-0.0024;0.0011;489.0;12.64;9.02;-29.14;306.13;-0.75;0.3;2.0;55.873524;-4.292516;202.93;NaN;8.39;148.69676;71.1;5 / 29;23711;2022-03-21 14:35:12:356
-0.0386;0.1567;9.862;-0.05;0.1273;9.8057;-0.0104;0.0024;-0.0037;-0.002;-0.0024;6.0E-4;489.0;12.64;9.02;-29.14;306.13;-0.75;0.3;2.0;55.873524;-4.292516;202.93;NaN;8.39;148.69676;71.1;5 / 29;23811;2022-03-21 14:35:12:456
-0.0434;0.1519;9.8465;-0.0519;0.1284;9.8057;-0.0165;0.0113;9.0E-4;-0.002;-0.0024;6.0E-4;489.0;14.66;9.0;-29.94;302.31;-0.74;0.29;2.0;55.873524;-4.292516;202.93;NaN;8.39;148.69676;71.1;5 / 29;23911;2022-03-21 14:35:12:556
-0.0422;0.1292;9.8261;-0.0514;0.128;9.8057;-0.013;0.0152;0.0072;-0.0017;-0.0027;0.0011;489.0;14.66;9.0;-29.94;302.31;-0.74;0.29;2.0;55.873524;-4.292516;202.93;NaN;8.39;148.69676;71.1;5 / 29;24012;2022-03-21 14:35:12:657
-0.0386;0.1388;9.8465;-0.0506;0.1279;9.8057;-0.009;0.0053;-0.0013;-0.0017;-0.0029;8.0E-4;489.0;16.11;9.94;-31.16;303.3;-0.75;0.3;2.0;55.873524;-4.292516;202.93;NaN;8.39;148.69676;71.1;5 / 29;24111;2022-03-21 14:35:12:756
-0.0565;0.1352;9.8393;-0.0511;0.1276;9.8057;-0.0165;0.0041;-0.0061;-0.0017;-0.0029;8.0E-4;489.0;16.11;9.94;-31.16;303.3;-0.75;0.3;2.0;55.873524;-4.292516;202.93;NaN;8.39;148.69676;71.1;5 / 29;24211;2022-03-21 14:35:12:856
-0.0685;0.1316;9.8261;-0.0513;0.1287;9.8057;-0.0131;0.0114;0.0012;-0.0015;-0.0029;5.0E-4;489.0;15.83;11.25;-31.54;305.79;-0.75;0.3;2.0;55.873524;-4.292516;202.93;NaN;8.39;148.69676;71.1;5 / 29;24311;2022-03-21 14:35:12:956
-0.0733;0.1352;9.8309;-0.0513;0.1287;9.8057;-0.0131;0.0114;0.0012;-0.0017;-0.0024;8.0E-4;489.0;15.83;11.25;-31.54;305.79;-0.75;0.3;2.0;55.873524;-4.292516;202.93;NaN;8.39;148.69676;71.1;5 / 29;24411;2022-03-21 14:35:13:056
-0.0757;0.1328;9.8285;-0.0509;0.1289;9.8057;-0.0103;0.0107;-0.0048;-0.0014;-0.0026;6.0E-4;489.0;15.17;11.04;-32.31;307.59;-0.75;0.3;2.0;55.873524;-4.292516;202.93;NaN;8.39;148.69676;71.1;5 / 29;24513;2022-03-21 14:35:13:158
-0.0781;0.128;9.8333;-0.051;0.1297;9.8057;-0.0174;0.0096;0.001;-0.0017;-0.0027;3.0E-4;489.0;15.17;11.04;-32.31;307.59;-0.75;0.3;2.0;55.873524;-4.292516;202.93;NaN;8.39;148.69676;71.1;5 / 29;24611;2022-03-21 14:35:13:256
-0.0757;0.1364;9.8249;-0.0506;0.129;9.8057;-0.0086;0.0043;-7.0E-4;-0.0017;-0.0027;3.0E-4;489.0;14.44;11.06;-31.72;309.55;-0.76;0.3;2.0;55.873524;-4.292516;202.93;NaN;8.39;148.69676;71.1;5 / 29;24711;2022-03-21 14:35:13:356
-0.0697;0.1436;9.8405;-0.0503;0.1288;9.8057;-0.0105;0.0033;-0.0059;-0.0017;-0.0032;6.0E-4;489.0;14.44;11.06;-31.72;309.55;-0.76;0.3;2.0;55.873524;-4.292516;202.93;NaN;8.39;148.69676;71.1;5 / 29;24811;2022-03-21 14:35:13:456
-0.0649;0.1232;9.8285;-0.0509;0.1286;9.8057;-0.017;0.0027;-0.0022;-0.0017;-0.0024;6.0E-4;489.0;14.87;11.33;-31.37;307.55;-0.75;0.29;2.0;55.873524;-4.292516;202.93;NaN;8.39;148.69676;71.1;5 / 29;24911;2022-03-21 14:35:13:556
-0.0637;0.1364;9.8357;-0.0518;0.1285;9.8057;-0.011;0.0079;0.0012;-0.0012;-0.0027;0.0011;489.0;15.36;11.51;-31.65;307.55;-0.75;0.29;2.0;55.873524;-4.292516;202.93;NaN;8.39;148.69676;71.1;5 / 29;25011;2022-03-21 14:35:13:656
-0.0458;0.1507;9.8501;-0.0518;0.1285;9.8057;-0.011;0.0079;0.0012;-0.0012;-0.0027;0.0011;489.0;15.11;10.93;-31.69;307.6;-0.75;0.3;2.0;55.873524;-4.292516;202.93;NaN;8.39;148.69676;71.1;5 / 29;25111;2022-03-21 14:35:13:756
-0.0625;0.1256;9.8333;-0.0507;0.1285;9.8057;-0.0037;0.0064;0.0026;-0.0014;-0.0027;5.0E-4;489.0;15.11;10.93;-31.69;307.6;-0.75;0.3;2.0;55.873524;-4.292516;202.93;NaN;8.39;148.69676;71.1;5 / 29;25211;2022-03-21 14:35:13:856
-0.0565;0.1352;9.8225;-0.0504;0.1281;9.8057;-0.0096;0.0084;0.0015;-0.0014;-0.0034;2.0E-4;489.0;14.29;10.76;-31.07;309.49;-0.75;0.3;2.0;55.873524;-4.292516;202.93;NaN;8.39;148.69676;71.1;5 / 29;25311;2022-03-21 14:35:13:956
-0.0601;0.1232;9.7878;-0.0505;0.1273;9.8057;-0.0146;-0.002;-0.0053;-0.002;-0.002;0.0011;489.0;14.29;10.76;-31.07;309.49;-0.75;0.3;2.0;55.873524;-4.292516;202.93;NaN;8.39;148.69676;71.1;5 / 29;25411;2022-03-21 14:35:14:056
-0.0709;0.1292;9.8345;-0.0501;0.1279;9.8057;-0.0103;0.0094;0.0088;-0.002;-0.002;0.0011;489.0;12.0;10.31;-29.96;311.25;-0.74;0.3;2.0;55.873524;-4.292516;202.93;NaN;8.39;148.69676;71.1;5 / 29;25511;2022-03-21 14:35:14:156
-0.0721;0.1519;9.8513;-0.0513;0.1294;9.8057;-0.0115;0.0067;9.0E-4;5.0E-4;-9.0E-4;0.0012;489.0;11.16;10.63;-28.09;316.33;-0.76;0.3;2.0;55.873524;-4.292516;202.93;NaN;8.39;148.69676;71.1;5 / 29;25613;2022-03-21 14:35:14:258
-0.0745;0.1161;9.8189;-0.0511;0.1288;9.8057;-0.0129;-0.0011;-0.0079;-8.0E-4;-0.0031;0.0011;489.0;11.16;10.63;-28.09;316.33;-0.76;0.3;2.0;55.873524;-4.292516;202.93;NaN;8.39;148.69676;71.1;5 / 29;25712;2022-03-21 14:35:14:357
-0.0769;0.1543;9.8166;-0.0505;0.1311;9.8056;-0.0131;0.0129;8.0E-4;-8.0E-4;-0.0031;0.0011;489.0;11.16;10.63;-28.09;316.33;-0.76;0.3;2.0;55.873524;-4.292516;202.93;NaN;8.39;148.69676;71.1;5 / 29;25812;2022-03-21 14:35:14:457
-0.0745;0.1699;9.8704;-0.0505;0.1311;9.8056;-0.0131;0.0129;8.0E-4;-3.0E-4;-0.0037;6.0E-4;489.0;11.18;10.48;-28.13;313.7;-0.77;0.3;2.0;55.873524;-4.292516;202.93;NaN;8.39;148.69676;71.1;5 / 29;25912;2022-03-21 14:35:14:557
-0.0649;0.1137;9.8189;-0.0487;0.1325;9.8056;-0.0077;-0.0024;-0.0043;-0.0017;-0.0029;6.0E-4;489.0;11.18;10.48;-28.13;313.7;-0.77;0.3;2.0;55.873524;-4.292516;202.93;NaN;8.39;148.69676;71.1;5 / 29;26012;2022-03-21 14:35:14:657
-0.0745;0.1316;9.8166;-0.0484;0.1321;9.8056;-0.0112;0.0019;-0.0043;-9.0E-4;-0.0027;3.0E-4;489.0;11.51;10.44;-27.97;311.19;-0.77;0.28;2.0;55.873524;-4.292516;202.93;NaN;8.39;148.69676;71.1;5 / 29;26111;2022-03-21 14:35:14:756
-0.0589;0.1699;9.8608;-0.0478;0.1334;9.8056;-0.0094;0.0082;0.0;-0.0012;-0.0024;9.0E-4;489.0;11.98;10.52;-28.09;313.81;-0.78;0.28;2.0;55.873524;-4.292516;202.93;NaN;8.39;148.69676;71.1;5 / 29;26211;2022-03-21 14:35:14:856
-0.0482;0.128;9.8225;-0.0473;0.1339;9.8056;-0.0083;0.0125;4.0E-4;-0.0012;-0.0024;9.0E-4;489.0;11.98;10.52;-28.09;313.81;-0.78;0.28;2.0;55.873524;-4.292516;202.93;NaN;8.39;148.69676;71.1;5 / 29;26311;2022-03-21 14:35:14:956
-0.047;0.1208;9.813;-0.0469;0.1339;9.8056;-0.0119;0.0077;0.0011;-0.0015;-0.0024;8.0E-4;489.0;11.98;10.52;-28.09;313.81;-0.78;0.28;2.0;55.873524;-4.292516;202.93;NaN;8.39;148.69676;71.1;5 / 29;26412;2022-03-21 14:35:15:057
-0.0338;0.1627;9.8644;-0.0472;0.1332;9.8056;-0.0108;8.0E-4;-0.009;-0.0014;-0.0026;0.0014;489.0;11.68;10.61;-27.71;313.81;-0.78;0.27;2.0;55.873524;-4.292516;202.93;NaN;8.39;148.69676;71.1;5 / 29;26511;2022-03-21 14:35:15:156
-0.0553;0.1352;9.8297;-0.0472;0.1332;9.8056;-0.0108;8.0E-4;-0.009;-0.0014;-0.0026;0.0014;489.0;11.68;10.61;-27.71;313.81;-0.78;0.27;2.0;55.873524;-4.292516;202.93;NaN;8.39;148.69676;71.1;5 / 29;26613;2022-03-21 14:35:15:258
-0.0553;0.1184;9.8142;-0.0461;0.134;9.8056;-0.008;0.0108;0.0016;-0.0014;-0.0021;8.0E-4;489.0;11.1;10.48;-28.13;313.69;-0.78;0.27;2.0;55.873524;-4.292516;202.93;NaN;8.39;148.69676;71.1;5 / 29;26717;2022-03-21 14:35:15:362
-0.0517;0.1567;9.8453;-0.0462;0.1333;9.8056;-0.0118;0.0012;-0.0016;-0.0015;-0.0023;9.0E-4;489.0;11.1;10.48;-28.13;313.69;-0.78;0.27;2.0;55.873524;-4.292516;202.93;NaN;8.39;148.69676;71.1;5 / 29;26811;2022-03-21 14:35:15:456
-0.0613;0.1543;9.8381;-0.0468;0.1345;9.8056;-0.0096;0.0175;0.0072;-0.0015;-0.0023;8.0E-4;489.0;11.03;10.54;-28.18;316.32;-0.78;0.27;2.0;55.873524;-4.292516;202.93;NaN;8.39;148.69676;71.1;5 / 29;26911;2022-03-21 14:35:15:556
-0.0685;0.1304;9.8297;-0.0463;0.1335;9.8056;-0.0041;0.0013;-4.0E-4;-0.0015;-0.0023;8.0E-4;489.0;11.03;10.54;-28.18;316.32;-0.78;0.27;2.0;55.873524;-4.292516;202.93;NaN;8.39;148.69676;71.1;5 / 29;27011;2022-03-21 14:35:15:656
-0.0613;0.1472;9.8489;-0.046;0.1336;9.8056;-0.0101;0.002;-0.0062;-0.0014;-0.0018;0.0011;489.0;11.08;10.37;-28.35;313.69;-0.78;0.27;2.0;55.873524;-4.292516;202.93;NaN;8.39;148.69676;71.1;5 / 29;27113;2022-03-21 14:35:15:758
-0.0613;0.1388;9.8369;-0.0461;0.1334;9.8056;-0.0111;0.0074;0.0014;-0.0018;-0.0021;0.0011;489.0;10.82;10.09;-28.09;313.69;-0.78;0.27;2.0;55.873524;-4.292516;202.93;NaN;8.39;148.69676;71.1;5 / 29;27212;2022-03-21 14:35:15:857
-0.0601;0.1256;9.8189;-0.0455;0.1328;9.8056;-0.0109;0.006;0.0039;-0.0012;-0.0024;6.0E-4;489.0;10.82;10.09;-28.09;313.69;-0.78;0.27;2.0;55.873524;-4.292516;202.93;NaN;8.39;148.69676;71.1;5 / 29;27312;2022-03-21 14:35:15:957
-0.0541;0.1436;9.8345;-0.0448;0.1335;9.8056;-0.0088;0.0145;0.0096;-0.0018;-0.0029;6.0E-4;489.0;10.86;10.05;-28.05;313.68;-0.78;0.27;2.0;55.873524;-4.292516;202.93;NaN;8.39;148.69676;71.1;5 / 29;27411;2022-03-21 14:35:16:056
-0.0577;0.1412;9.8249;-0.0448;0.1335;9.8056;-0.0088;0.0145;0.0096;-0.0018;-0.0029;6.0E-4;489.0;10.86;10.05;-28.05;313.68;-0.78;0.27;2.0;55.873524;-4.292516;202.93;NaN;8.39;148.69676;71.1;5 / 29;27512;2022-03-21 14:35:16:157
-0.0517;0.1436;9.8477;-0.0457;0.1326;9.8056;-0.0123;0.0011;0.0014;0.002;0.0029;0.0024;489.0;10.86;10.37;-28.11;313.68;-0.78;0.27;2.0;55.873524;-4.292516;202.93;NaN;8.39;148.69676;71.1;5 / 29;27611;2022-03-21 14:35:16:256
-0.0625;0.1232;9.8178;-0.0478;0.1343;9.8056;-0.0079;0.0017;-0.0056;-0.002;-0.0027;8.0E-4;489.0;11.4;10.46;-27.88;313.71;-0.78;0.28;2.0;55.873524;-4.292516;202.93;NaN;8.39;148.69676;71.1;5 / 29;27711;2022-03-21 14:35:16:356
-0.0553;0.134;9.8225;-0.047;0.1333;9.8056;-0.011;-4.0E-4;-0.0037;-0.0011;-0.0027;6.0E-4;489.0;11.46;10.33;-28.13;313.69;-0.78;0.27;2.0;55.873524;-4.292516;202.93;NaN;8.39;148.69676;71.1;5 / 29;27813;2022-03-21 14:35:16:458
-0.0517;0.1675;9.8632;-0.0465;0.1341;9.8056;-0.0107;0.0095;0.0035;-0.0011;-0.0027;6.0E-4;489.0;11.46;10.33;-28.13;313.69;-0.78;0.27;2.0;55.873524;-4.292516;202.93;NaN;8.39;148.69676;71.1;5 / 29;27913;2022-03-21 14:35:16:558
-0.0565;0.1316;9.8333;-0.0468;0.1341;9.8056;-0.0104;0.0104;-0.0045;-0.0017;-0.0021;0.0012;489.0;11.57;10.14;-28.52;311.23;-0.78;0.27;2.0;55.873524;-4.292516;202.93;NaN;8.39;148.69676;71.1;5 / 29;28015;2022-03-21 14:35:16:660
-0.0577;0.1292;9.8237;-0.0466;0.134;9.8056;-0.0102;0.0081;-0.0033;-0.0015;-0.0026;9.0E-4;489.0;11.48;10.35;-28.37;311.23;-0.78;0.27;2.0;55.873524;-4.292516;202.93;NaN;8.39;148.69676;71.1;5 / 29;28112;2022-03-21 14:35:16:757
-0.0577;0.1519;9.8489;-0.0466;0.134;9.8056;-0.0102;0.0081;-0.0033;-9.0E-4;-0.0012;0.0017;489.0;11.48;10.35;-28.37;311.23;-0.78;0.27;2.0;55.873524;-4.292516;202.93;NaN;8.39;148.69676;71.1;5 / 29;28211;2022-03-21 14:35:16:856
-0.0649;0.1388;9.8357;-0.0479;0.1338;9.8056;-0.0173;0.0055;-0.0037;-9.0E-4;-0.0012;0.0017;489.0;11.53;10.22;-28.5;311.24;-0.78;0.28;2.0;55.873524;-4.292516;202.93;NaN;8.39;148.69676;71.1;5 / 29;28311;2022-03-21 14:35:16:956
-0.0733;0.122;9.8106;-0.047;0.1336;9.8056;-0.0074;0.0056;-0.0035;-8.0E-4;-0.0015;0.0012;489.0;11.53;10.22;-28.5;311.24;-0.78;0.28;2.0;55.873524;-4.292516;202.93;NaN;8.39;148.69676;71.1;5 / 29;28411;2022-03-21 14:35:17:056
-0.0577;0.1531;9.8441;-0.0463;0.1336;9.8056;-0.0057;0.0045;1.0E-4;-0.0015;-0.0024;8.0E-4;489.0;11.57;10.41;-28.76;311.23;-0.78;0.27;2.0;55.873524;-4.292516;202.93;NaN;8.39;148.69676;71.1;5 / 29;28516;2022-03-21 14:35:17:161
-0.0769;0.1364;9.8369;-0.047;0.1344;9.8056;-0.0122;0.0076;0.0;-0.0011;-0.0031;0.0011;489.0;11.57;10.41;-28.76;311.23;-0.78;0.27;2.0;55.873524;-4.292516;202.93;NaN;8.39;148.69676;71.1;5 / 29;28613;2022-03-21 14:35:17:258
-0.0769;0.1184;9.8058;-0.0463;0.1349;9.8056;-0.0097;0.0064;-0.0012;-0.0011;-0.0031;0.0011;489.0;11.34;10.43;-28.84;313.75;-0.79;0.27;2.0;55.873524;-4.292516;202.93;NaN;8.39;148.69676;71.1;5 / 29;28712;2022-03-21 14:35:17:357
-0.0374;0.1579;9.8716;-0.0463;0.135;9.8056;-0.0105;0.0055;-6.0E-4;-9.0E-4;-0.0024;6.0E-4;489.0;11.34;10.43;-28.84;313.75;-0.79;0.27;2.0;55.873524;-4.292516;202.93;NaN;8.39;148.69676;71.1;5 / 29;28811;2022-03-21 14:35:17:456
-0.047;0.1352;9.8309;-0.0458;0.1343;9.8056;-0.0134;0.0018;-0.0028;-0.0014;-0.0026;6.0E-4;489.0;10.84;10.28;-29.36;313.75;-0.79;0.27;2.0;55.873524;-4.292516;202.93;NaN;8.39;148.69676;71.1;5 / 29;28911;2022-03-21 14:35:17:556
-0.0529;0.1376;9.8357;-0.0458;0.1343;9.8056;-0.0134;0.0018;-0.0028;-0.002;-0.0024;8.0E-4;489.0;10.58;10.41;-28.99;313.75;-0.79;0.27;2.0;55.873524;-4.292516;202.93;NaN;8.39;148.69676;71.1;5 / 29;29017;2022-03-21 14:35:17:662
-0.035;0.1687;9.8644;-0.0462;0.1351;9.8056;-0.0158;0.0133;-4.0E-4;-0.002;-0.0024;8.0E-4;489.0;10.61;10.39;-29.08;313.75;-0.79;0.27;2.0;55.873524;-4.292516;202.93;NaN;8.39;148.69676;71.1;5 / 29;29111;2022-03-21 14:35:17:756
-0.0541;0.1196;9.8058;-0.046;0.1342;9.8056;-0.0057;0.005;3.0E-4;-0.0011;-0.0024;0.0011;489.0;10.61;10.39;-29.08;313.75;-0.79;0.27;2.0;55.873524;-4.292516;202.93;NaN;8.39;148.69676;71.1;5 / 29;29211;2022-03-21 14:35:17:856
-0.0589;0.1232;9.8154;-0.0464;0.1337;9.8056;-0.0092;0.0055;0.001;-0.0015;-0.0015;0.0014;489.0;10.67;10.33;-29.23;313.74;-0.78;0.27;2.0;55.873524;-4.292516;202.93;NaN;8.39;148.69676;71.1;5 / 29;29312;2022-03-21 14:35:17:957
-0.0553;0.1771;9.8788;-0.0469;0.1327;9.8056;-0.0135;-0.0058;-0.0128;-0.0011;-0.0023;6.0E-4;489.0;10.67;10.33;-29.23;313.74;-0.78;0.27;2.0;55.873524;-4.292516;202.93;NaN;8.39;148.69676;71.1;5 / 29;29412;2022-03-21 14:35:18:057
-0.0613;0.134;9.8381;-0.0465;0.1334;9.8056;-0.0091;0.0055;-7.0E-4;-0.0011;-0.0023;6.0E-4;489.0;10.97;10.63;-28.84;316.37;-0.78;0.27;2.0;55.873524;-4.292516;202.93;NaN;8.39;148.69676;71.1;5 / 29;29512;2022-03-21 14:35:18:157
-0.0577;0.1232;9.8429;-0.0462;0.1341;9.8056;-0.0118;0.0123;0.0032;-0.0012;-0.0024;9.0E-4;489.0;10.97;10.63;-28.84;316.37;-0.78;0.27;2.0;55.873524;-4.292516;202.93;NaN;8.39;148.69676;71.1;5 / 29;29611;2022-03-21 14:35:18:256
-0.0565;0.1687;9.8429;-0.0462;0.1341;9.8056;-0.0118;0.0123;0.0032;-9.0E-4;-0.0024;6.0E-4;489.0;11.14;10.54;-28.61;316.37;-0.78;0.27;2.0;55.873524;-4.292516;202.93;NaN;8.39;148.69676;71.1;5 / 29;29711;2022-03-21 14:35:18:356
-0.0589;0.128;9.8154;-0.0456;0.1342;9.8056;-0.0084;0.009;0.0042;-0.0017;-0.0029;6.0E-4;489.0;11.14;10.54;-28.61;316.37;-0.78;0.27;2.0;55.873524;-4.292516;202.93;NaN;8.39;148.69676;71.1;5 / 29;29812;2022-03-21 14:35:18:457
-0.0434;0.1555;9.8261;-0.0447;0.134;9.8056;-0.007;0.0073;-0.0022;-0.0017;-0.0029;6.0E-4;489.0;11.19;9.96;-28.54;313.74;-0.78;0.27;2.0;55.873524;-4.292516;202.93;NaN;8.39;148.69676;71.1;5 / 29;29911;2022-03-21 14:35:18:556
-0.0494;0.1472;9.8178;-0.0445;0.1339;9.8056;-0.0095;0.0069;0.0048;-0.0014;-0.0023;8.0E-4;489.0;11.48;9.69;-28.42;313.68;-0.78;0.26;2.0;55.873524;-4.292516;202.93;NaN;8.39;148.69676;71.1;5 / 29;30013;2022-03-21 14:35:18:658
-0.0553;0.134;9.8237;-0.0439;0.1339;9.8056;-0.0097;0.0065;-0.0038;-0.0017;-0.0027;6.0E-4;489.0;11.48;9.69;-28.42;313.68;-0.78;0.26;2.0;55.873524;-4.292516;202.93;NaN;8.39;148.69676;71.1;5 / 29;30111;2022-03-21 14:35:18:756
-0.0482;0.1376;9.8441;-0.0437;0.134;9.8056;-0.0107;0.0092;-0.002;-0.0017;-0.0023;5.0E-4;489.0;11.25;9.84;-28.41;313.67;-0.78;0.26;2.0;55.873524;-4.292516;202.93;NaN;8.39;148.69676;71.1;5 / 29;30212;2022-03-21 14:35:18:857
-0.0494;0.1412;9.862;-0.0435;0.1336;9.8056;-0.0117;0.0084;0.0105;-0.0017;-0.0023;5.0E-4;489.0;11.25;9.84;-28.41;313.67;-0.78;0.26;2.0;55.873524;-4.292516;202.93;NaN;8.39;148.69676;71.1;5 / 29;30311;2022-03-21 14:35:18:956
-0.0446;0.1543;9.8501;-0.0446;0.1337;9.8056;-0.0114;0.0048;-0.0026;-6.0E-4;-2.0E-4;0.0014;489.0;11.25;9.84;-28.41;313.67;-0.78;0.26;2.0;55.873524;-4.292516;202.93;NaN;8.39;148.69676;71.1;5 / 29;30411;2022-03-21 14:35:19:056
-0.0505;0.1412;9.8309;-0.0446;0.1337;9.8056;-0.0114;0.0048;-0.0026;-0.0015;-0.0021;6.0E-4;489.0;11.4;10.09;-28.46;313.68;-0.78;0.26;2.0;55.873524;-4.292516;202.93;NaN;8.39;148.69676;71.1;5 / 29;30511;2022-03-21 14:35:19:156
-0.0565;0.1304;9.8189;-0.0446;0.1339;9.8056;-0.0114;0.0033;0.0064;-0.0015;-0.0026;9.0E-4;489.0;11.4;10.09;-28.46;313.68;-0.78;0.26;2.0;55.873524;-4.292516;202.93;NaN;8.39;148.69676;71.1;5 / 29;30611;2022-03-21 14:35:19:256
-0.0637;0.1519;9.8429;-0.0442;0.1332;9.8056;-0.0126;0.0032;-0.0069;-0.0015;-0.0026;9.0E-4;489.0;11.29;10.29;-28.41;313.68;-0.78;0.26;2.0;55.873524;-4.292516;202.93;NaN;8.39;148.69676;71.1;5 / 29;30711;2022-03-21 14:35:19:356
-0.0529;0.1639;9.8477;-0.0442;0.1339;9.8056;-0.011;0.0077;4.0E-4;-0.0018;-0.0029;3.0E-4;489.0;11.29;10.29;-28.41;313.68;-0.78;0.26;2.0;55.873524;-4.292516;202.93;NaN;8.39;148.69676;71.1;5 / 29;30811;2022-03-21 14:35:19:456
-0.0529;0.1244;9.8333;-0.0437;0.1337;9.8056;-0.0127;0.0087;1.0E-4;-0.0017;-0.0024;5.0E-4;489.0;11.55;10.31;-28.42;311.17;-0.78;0.26;2.0;55.873524;-4.292516;202.93;NaN;8.39;148.69676;71.1;5 / 29;30912;2022-03-21 14:35:19:557
-0.0494;0.1448;9.8477;-0.0436;0.1341;9.8056;-0.0096;0.0115;0.0015;-0.0015;-0.0023;6.0E-4;489.0;11.55;10.31;-28.42;311.17;-0.78;0.26;2.0;55.873524;-4.292516;202.93;NaN;8.39;148.69676;71.1;5 / 29;31011;2022-03-21 14:35:19:656
-0.0494;0.146;9.8405;-0.0428;0.1336;9.8056;-0.008;0.0025;-0.0074;-0.0015;-0.0023;6.0E-4;489.0;11.48;10.46;-28.2;313.67;-0.78;0.25;2.0;55.873524;-4.292516;202.93;NaN;8.39;148.69676;71.1;5 / 29;31111;2022-03-21 14:35:19:756
-0.0541;0.1376;9.8297;-0.043;0.1339;9.8056;-0.0102;0.0077;-7.0E-4;-0.0018;-0.002;9.0E-4;489.0;11.48;10.46;-28.2;313.67;-0.78;0.25;2.0;55.873524;-4.292516;202.93;NaN;8.39;148.69676;71.1;5 / 29;31211;2022-03-21 14:35:19:856
-0.0529;0.1388;9.8321;-0.043;0.1339;9.8056;-0.0102;0.0077;-7.0E-4;-0.0011;-0.0027;6.0E-4;489.0;11.74;10.33;-27.82;311.16;-0.78;0.25;2.0;55.873524;-4.292516;202.93;NaN;8.39;148.69676;71.1;5 / 29;31311;2022-03-21 14:35:19:956
-0.0505;0.1496;9.8357;-0.0428;0.1342;9.8056;-0.0085;0.0038;0.003;-0.0011;-0.0027;5.0E-4;489.0;11.74;10.33;-27.82;311.16;-0.78;0.25;2.0;55.873524;-4.292516;202.93;NaN;8.39;148.69676;71.1;5 / 29;31412;2022-03-21 14:35:20:057
-0.047;0.134;9.8213;-0.0431;0.1335;9.8056;-0.0153;0.0077;-0.0053;-0.0011;-0.0027;5.0E-4;489.0;12.08;10.46;-28.03;311.16;-0.78;0.25;2.0;55.873524;-4.292516;202.93;NaN;8.39;148.69676;71.1;5 / 29;31511;2022-03-21 14:35:20:156
-0.0577;0.1388;9.8429;-0.0433;0.1342;9.8056;-0.0131;0.0087;-0.0015;-0.0011;-0.0026;8.0E-4;489.0;12.08;10.46;-28.03;311.16;-0.78;0.25;2.0;55.873524;-4.292516;202.93;NaN;8.39;148.69676;71.1;5 / 29;31611;2022-03-21 14:35:20:256
-0.0565;0.1424;9.8441;-0.0438;0.1342;9.8056;-0.0138;0.0071;-0.0026;-0.0014;-0.0021;6.0E-4;489.0;11.72;10.43;-28.11;311.16;-0.78;0.25;2.0;55.873524;-4.292516;202.93;NaN;8.39;148.69676;71.1;5 / 29;31711;2022-03-21 14:35:20:356
-0.0553;0.1496;9.8369;-0.0445;0.1345;9.8056;-0.0119;0.0071;-0.0027;-0.0014;-0.0021;6.0E-4;489.0;11.72;10.43;-28.11;311.16;-0.78;0.25;2.0;55.873524;-4.292516;202.93;NaN;8.39;148.69676;71.1;5 / 29;31811;2022-03-21 14:35:20:456
-0.0565;0.1436;9.8285;-0.0446;0.1352;9.8056;-0.0106;0.0093;-0.0038;-9.0E-4;-0.002;0.0012;489.0;11.57;10.54;-28.42;313.8;-0.79;0.26;2.0;55.873524;-4.292516;202.93;NaN;8.39;148.69676;71.1;5 / 29;31911;2022-03-21 14:35:20:556
-0.0517;0.1484;9.8393;-0.0446;0.1352;9.8056;-0.0106;0.0093;-0.0038;-0.0015;-0.0024;0.0012;489.0;11.57;10.54;-28.42;313.8;-0.79;0.26;2.0;55.873524;-4.292516;202.93;NaN;8.39;148.69676;71.1;5 / 29;32011;2022-03-21 14:35:20:656
-0.0577;0.1316;9.8249;-0.0441;0.135;9.8056;-0.0099;0.0034;-0.0049;-0.0012;-0.0023;8.0E-4;489.0;10.99;10.31;-28.2;313.69;-0.79;0.26;2.0;55.873524;-4.292516;202.93;NaN;8.39;148.69676;71.1;5 / 29;32111;2022-03-21 14:35:20:756
-0.0529;0.1412;9.8417;-0.0444;0.1351;9.8056;-0.014;0.0065;0.0042;-0.0014;-0.0026;6.0E-4;489.0;10.99;10.31;-28.2;313.69;-0.79;0.26;2.0;55.873524;-4.292516;202.93;NaN;8.39;148.69676;71.1;5 / 29;32211;2022-03-21 14:35:20:856
-0.0494;0.1519;9.8441;-0.0449;0.1354;9.8056;-0.0131;0.0074;-4.0E-4;-0.0014;-0.0026;6.0E-4;489.0;11.08;10.26;-28.41;313.69;-0.79;0.26;2.0;55.873524;-4.292516;202.93;NaN;8.39;148.69676;71.1;5 / 29;32311;2022-03-21 14:35:20:956
-0.0601;0.1364;9.8249;-0.0444;0.1356;9.8056;-0.0068;0.0072;-8.0E-4;-0.0015;-0.0027;9.0E-4;489.0;11.08;10.26;-28.41;313.69;-0.79;0.26;2.0;55.873524;-4.292516;202.93;NaN;8.39;148.69676;71.1;5 / 29;32411;2022-03-21 14:35:21:056
-0.047;0.1412;9.8417;-0.0439;0.135;9.8056;-0.009;0.0043;0.0;-0.0015;-0.0023;6.0E-4;489.0;11.12;10.01;-28.33;313.69;-0.79;0.26;2.0;55.873524;-4.292516;202.93;NaN;8.39;148.69676;71.1;5 / 29;32511;2022-03-21 14:35:21:156
-0.0541;0.1531;9.862;-0.0434;0.1345;9.8056;-0.0086;0.0064;-0.0069;-0.0017;-0.0026;6.0E-4;489.0;11.12;10.01;-28.33;313.69;-0.79;0.26;2.0;55.873524;-4.292516;202.93;NaN;8.39;148.69676;71.1;5 / 29;32611;2022-03-21 14:35:21:256
-0.0541;0.1376;9.8285;-0.0429;0.1343;9.8056;-0.0115;0.0074;0.0022;-0.0017;-0.0026;6.0E-4;489.0;11.25;9.98;-27.96;313.67;-0.79;0.25;2.0;55.873524;-4.292516;202.93;NaN;8.39;148.69676;71.1;5 / 29;32712;2022-03-21 14:35:21:357
-0.0529;0.1364;9.8393;-0.0429;0.1343;9.8056;-0.0115;0.0074;0.0022;-0.0017;-0.0026;6.0E-4;489.0;11.25;9.98;-27.96;313.67;-0.79;0.25;2.0;55.873524;-4.292516;202.93;NaN;8.39;148.69676;71.1;5 / 29;32811;2022-03-21 14:35:21:456
-0.0697;0.1328;9.8201;-0.0425;0.1339;9.8056;-0.0103;0.0057;-0.002;-0.0015;-0.0024;0.0011;489.0;11.51;10.41;-28.03;311.16;-0.78;0.25;2.0;55.873524;-4.292516;202.93;NaN;8.39;148.69676;71.1;5 / 29;32911;2022-03-21 14:35:21:556
-0.0601;0.1519;9.8417;-0.0433;0.1335;9.8056;-0.0179;9.0E-4;-0.0075;-0.0014;-0.0026;6.0E-4;489.0;11.51;10.41;-28.03;311.16;-0.78;0.25;2.0;55.873524;-4.292516;202.93;NaN;8.39;148.69676;71.1;5 / 29;33011;2022-03-21 14:35:21:656
-0.0517;0.1412;9.8369;-0.044;0.1343;9.8056;-0.014;0.0029;-0.002;-0.0014;-0.0026;6.0E-4;489.0;11.55;10.33;-27.82;311.16;-0.78;0.25;2.0;55.873524;-4.292516;202.93;NaN;8.39;148.69676;71.1;5 / 29;33111;2022-03-21 14:35:21:756
-0.0505;0.14;9.8178;-0.0438;0.1347;9.8056;-0.0083;0.0085;0.0025;-0.0015;-0.0021;6.0E-4;489.0;11.55;10.33;-27.82;311.16;-0.78;0.25;2.0;55.873524;-4.292516;202.93;NaN;8.39;148.69676;71.1;5 / 29;33212;2022-03-21 14:35:21:857
-0.0505;0.1555;9.8441;-0.0455;0.1369;9.8056;-0.0073;0.0088;-0.0016;-8.0E-4;-0.0021;6.0E-4;489.0;11.55;10.37;-28.13;311.17;-0.79;0.26;2.0;55.873524;-4.292516;202.93;NaN;8.39;148.69676;71.1;5 / 29;33311;2022-03-21 14:35:21:956
-0.0529;0.1412;9.8381;-0.0451;0.1362;9.8056;-0.0077;0.0034;0.0012;-8.0E-4;-0.0021;6.0E-4;489.0;11.55;10.37;-28.13;311.17;-0.79;0.26;2.0;55.873524;-4.292516;202.93;NaN;8.39;148.69676;71.1;5 / 29;33412;2022-03-21 14:35:22:057
-0.0529;0.1591;9.8453;-0.0444;0.1366;9.8056;-0.0072;0.0082;0.0019;-0.0012;-0.002;0.0011;489.0;11.42;9.94;-28.13;313.7;-0.8;0.26;2.0;55.873524;-4.292516;202.93;NaN;8.39;148.69676;71.1;5 / 29;33515;2022-03-21 14:35:22:160
-0.0613;0.1472;9.8345;-0.0444;0.1366;9.8056;-0.0072;0.0082;0.0019;-0.0012;-0.0021;0.0012;489.0;11.42;9.94;-28.13;313.7;-0.8;0.26;2.0;55.873524;-4.292516;202.93;NaN;8.39;148.69676;71.1;5 / 29;33611;2022-03-21 14:35:22:256
-0.0625;0.1172;9.7902;-0.0436;0.1362;9.8056;-0.0061;0.0027;-0.0065;-0.0011;-0.0023;0.0011;489.0;11.36;10.03;-28.2;313.7;-0.8;0.26;2.0;55.873524;-4.292516;202.93;NaN;8.39;148.69676;71.1;5 / 29;33711;2022-03-21 14:35:22:356
-0.0446;0.1543;9.8285;-0.0434;0.1361;9.8056;-0.0082;0.0071;0.0067;-0.0014;-0.002;3.0E-4;489.0;11.36;10.03;-28.2;313.7;-0.8;0.26;2.0;55.873524;-4.292516;202.93;NaN;8.39;148.69676;71.1;5 / 29;33811;2022-03-21 14:35:22:456
-0.0398;0.1543;9.8477;-0.0434;0.1356;9.8056;-0.0091;0.0088;0.001;-0.0014;-0.002;3.0E-4;489.0;11.66;10.28;-28.01;311.18;-0.8;0.25;2.0;55.873524;-4.292516;202.93;NaN;8.39;148.69676;71.1;5 / 29;33912;2022-03-21 14:35:22:557
-0.0517;0.1352;9.8417;-0.043;0.1358;9.8056;-0.0094;0.0047;-0.0054;-5.0E-4;-0.0032;5.0E-4;489.0;11.66;10.28;-28.01;311.18;-0.8;0.25;2.0;55.873524;-4.292516;202.93;NaN;8.39;148.69676;71.1;5 / 29;34011;2022-03-21 14:35:22:656
-0.0398;0.1639;9.8501;-0.0423;0.1356;9.8056;-0.0101;0.0017;-0.0014;-0.0014;-0.0026;2.0E-4;489.0;11.48;10.56;-27.84;316.31;-0.79;0.25;2.0;55.873524;-4.292516;202.93;NaN;8.39;148.69676;71.1;5 / 29;34111;2022-03-21 14:35:22:756
-0.0505;0.1388;9.8321;-0.0426;0.1353;9.8056;-0.0131;-0.0024;-3.0E-4;-0.0017;-0.0018;5.0E-4;489.0;11.48;10.56;-27.84;316.31;-0.79;0.25;2.0;55.873524;-4.292516;202.93;NaN;8.39;148.69676;71.1;5 / 29;34211;2022-03-21 14:35:22:856
-0.0565;0.1125;9.7998;-0.0426;0.1353;9.8056;-0.0131;-0.0024;-3.0E-4;-0.0017;-0.0018;5.0E-4;489.0;11.38;10.41;-27.75;313.67;-0.79;0.25;2.0;55.873524;-4.292516;202.93;NaN;8.39;148.69676;71.1;5 / 29;34311;2022-03-21 14:35:22:956
-0.0505;0.1591;9.8584;-0.0431;0.1346;9.8056;-0.0137;0.0051;0.0023;-0.0017;-0.0026;6.0E-4;489.0;11.31;10.11;-27.73;313.67;-0.79;0.25;2.0;55.873524;-4.292516;202.93;NaN;8.39;148.69676;71.1;5 / 29;34412;2022-03-21 14:35:23:057
-0.0649;0.1519;9.8584;-0.0428;0.1344;9.8056;-0.0069;0.0041;9.0E-4;-8.0E-4;-0.0021;6.0E-4;489.0;11.48;10.01;-27.82;313.67;-0.79;0.25;2.0;55.873524;-4.292516;202.93;NaN;8.39;148.69676;71.1;5 / 29;34511;2022-03-21 14:35:23:156
-0.0625;0.1244;9.8213;-0.0428;0.1345;9.8056;-0.008;0.0064;-0.0048;-0.0017;-0.0023;9.0E-4;489.0;11.48;10.01;-27.82;313.67;-0.79;0.25;2.0;55.873524;-4.292516;202.93;NaN;8.39;148.69676;71.1;5 / 29;34612;2022-03-21 14:35:23:257
-0.0577;0.1507;9.8333;-0.0429;0.1346;9.8056;-0.0123;0.0014;-0.0045;-0.0017;-0.0023;9.0E-4;489.0;11.63;10.28;-27.77;311.16;-0.79;0.25;2.0;55.873524;-4.292516;202.93;NaN;8.39;148.69676;71.1;5 / 29;34713;2022-03-21 14:35:23:358
-0.0529;0.1579;9.8213;-0.0425;0.134;9.8056;-0.0103;0.0032;6.0E-4;-0.0015;-0.0023;3.0E-4;489.0;11.63;10.28;-27.77;311.16;-0.79;0.25;2.0;55.873524;-4.292516;202.93;NaN;8.39;148.69676;71.1;5 / 29;34811;2022-03-21 14:35:23:456
-0.0625;0.1184;9.807;-0.0451;0.1363;9.8056;-0.0081;0.0117;0.0027;0.0011;0.0011;0.0018;489.0;11.38;10.5;-27.47;316.25;-0.78;0.25;2.0;55.873524;-4.292516;202.93;NaN;8.39;148.69676;71.1;5 / 29;34911;2022-03-21 14:35:23:556
-0.0553;0.1579;9.8285;-0.0461;0.1372;9.8056;-0.006;0.0088;-3.0E-4;0.0011;0.0011;0.0018;489.0;11.38;10.5;-27.47;316.25;-0.78;0.25;2.0;55.873524;-4.292516;202.93;NaN;8.39;148.69676;71.1;5 / 29;35011;2022-03-21 14:35:23:656
-0.0494;0.1567;9.862;-0.0461;0.1372;9.8056;-0.006;0.0088;-3.0E-4;-0.0014;-0.0023;0.0011;489.0;11.48;10.61;-27.43;316.3;-0.8;0.27;2.0;55.873524;-4.292516;202.93;NaN;8.39;148.69676;71.1;5 / 29;35111;2022-03-21 14:35:23:756
-0.0577;0.1137;9.8142;-0.0458;0.1366;9.8056;-0.0102;0.003;-7.0E-4;-0.0014;-0.0021;8.0E-4;489.0;11.48;10.61;-27.43;316.3;-0.8;0.27;2.0;55.873524;-4.292516;202.93;NaN;8.39;148.69676;71.1;5 / 29;35211;2022-03-21 14:35:23:856
-0.0529;0.1388;9.8369;-0.0454;0.1359;9.8056;-0.007;-0.0022;-0.0036;-0.0017;-0.0023;5.0E-4;489.0;11.31;10.65;-27.82;316.34;-0.8;0.27;2.0;55.873524;-4.292516;202.93;NaN;8.39;148.69676;71.1;5 / 29;35312;2022-03-21 14:35:23:957
-0.0505;0.1555;9.8608;-0.045;0.1346;9.8056;-0.0102;0.0014;0.0016;-5.0E-4;-0.0017;0.0012;489.0;11.31;10.65;-27.82;316.34;-0.8;0.27;2.0;55.873524;-4.292516;202.93;NaN;8.39;148.69676;71.1;5 / 29;35411;2022-03-21 14:35:24:056
-0.0482;0.1244;9.8178;-0.0445;0.1352;9.8056;-0.0072;0.0056;-0.0052;-5.0E-4;-0.0017;0.0012;489.0;11.33;10.63;-28.03;316.32;-0.79;0.26;2.0;55.873524;-4.292516;202.93;NaN;8.39;148.69676;71.1;5 / 29;35511;2022-03-21 14:35:24:156
-0.0458;0.14;9.8465;-0.0433;0.134;9.8056;-0.0063;0.0064;0.0064;-0.0021;-0.0023;5.0E-4;489.0;11.33;10.63;-28.03;316.32;-0.79;0.26;2.0;55.873524;-4.292516;202.93;NaN;8.39;148.69676;71.1;5 / 29;35611;2022-03-21 14:35:24:256
-0.0494;0.1519;9.8453;-0.0433;0.1344;9.8056;-0.0095;0.0061;0.0029;-0.0015;-0.0023;8.0E-4;489.0;11.4;10.56;-28.42;316.3;-0.78;0.25;2.0;55.873524;-4.292516;202.93;NaN;8.39;148.69676;71.1;5 / 29;35711;2022-03-21 14:35:24:356
-0.0458;0.146;9.8381;-0.0432;0.1339;9.8056;-0.0108;0.0033;-0.0048;-0.0015;-0.0024;5.0E-4;489.0;11.4;10.56;-28.42;316.3;-0.78;0.25;2.0;55.873524;-4.292516;202.93;NaN;8.39;148.69676;71.1;5 / 29;35811;2022-03-21 14:35:24:456
-0.0398;0.1472;9.8393;-0.0432;0.1339;9.8056;-0.0108;0.0033;-0.0048;-0.0015;-0.0024;5.0E-4;489.0;11.51;10.09;-28.31;311.16;-0.78;0.25;2.0;55.873524;-4.292516;202.93;NaN;8.39;148.69676;71.1;5 / 29;35911;2022-03-21 14:35:24:556
-0.0517;0.122;9.8082;-0.0427;0.1344;9.8056;-0.0106;0.0036;-0.0044;-9.0E-4;-0.0023;2.0E-4;489.0;11.51;10.09;-28.31;311.16;-0.78;0.25;2.0;55.873524;-4.292516;202.93;NaN;8.39;148.69676;71.1;5 / 29;36011;2022-03-21 14:35:24:656
-0.0505;0.1472;9.8441;-0.0426;0.1343;9.8056;-0.0095;0.0054;0.0097;-0.0014;-0.0012;6.0E-4;489.0;11.49;9.88;-28.26;313.67;-0.79;0.25;2.0;55.873524;-4.292516;202.93;NaN;8.39;148.69676;71.1;5 / 29;36111;2022-03-21 14:35:24:756
-0.0577;0.1699;9.8501;-0.043;0.1333;9.8057;-0.0075;0.0015;-0.0054;-0.0011;-0.0018;6.0E-4;489.0;11.49;9.88;-28.26;313.67;-0.79;0.25;2.0;55.873524;-4.292516;202.93;NaN;8.39;148.69676;71.1;5 / 29;36212;2022-03-21 14:35:24:857
-0.0565;0.128;9.8405;-0.044;0.134;9.8056;-0.0124;0.0092;0.0027;-0.0011;-0.0018;6.0E-4;489.0;11.21;9.84;-28.09;313.66;-0.78;0.25;2.0;55.873524;-4.292516;202.93;NaN;8.39;148.69676;71.1;5 / 29;36311;2022-03-21 14:35:24:956
-0.0589;0.1149;9.8058;-0.0449;0.1337;9.8056;-0.0115;-0.0045;-0.0019;-0.0012;-0.0012;9.0E-4;489.0;11.21;9.84;-28.09;313.66;-0.78;0.25;2.0;55.873524;-4.292516;202.93;NaN;8.39;148.69676;71.1;5 / 29;36411;2022-03-21 14:35:25:056
-0.0541;0.1615;9.8166;-0.0452;0.1342;9.8056;-0.0108;0.0062;0.003;-8.0E-4;-0.0023;3.0E-4;489.0;11.01;9.62;-27.92;313.68;-0.78;0.26;2.0;55.873524;-4.292516;202.93;NaN;8.39;148.69676;71.1;5 / 29;36512;2022-03-21 14:35:25:157
-0.0553;0.1496;9.8453;-0.0452;0.1342;9.8056;-0.0108;0.0062;0.003;-9.0E-4;-0.0027;8.0E-4;489.0;11.01;9.62;-27.92;313.68;-0.78;0.26;2.0;55.873524;-4.292516;202.93;NaN;8.39;148.69676;71.1;5 / 29;36611;2022-03-21 14:35:25:256
-0.0601;0.1615;9.8536;-0.0448;0.1351;9.8056;-0.0112;2.0E-4;-0.0015;-9.0E-4;-0.0027;8.0E-4;489.0;11.19;9.94;-27.84;313.69;-0.78;0.26;2.0;55.873524;-4.292516;202.93;NaN;8.39;148.69676;71.1;5 / 29;36711;2022-03-21 14:35:25:356
-0.0434;0.122;9.7974;-0.0439;0.1365;9.8056;-0.0082;0.0159;0.0072;-0.0011;-0.0017;0.0011;489.0;11.19;9.94;-27.84;313.69;-0.78;0.26;2.0;55.873524;-4.292516;202.93;NaN;8.39;148.69676;71.1;5 / 29;36812;2022-03-21 14:35:25:457
-0.0529;0.1244;9.8094;-0.0441;0.1351;9.8056;-0.0112;-2.0E-4;-0.0061;-0.002;-0.0017;6.0E-4;489.0;11.42;10.2;-28.16;313.69;-0.8;0.26;2.0;55.873524;-4.292516;202.93;NaN;8.39;148.69676;71.1;5 / 29;36911;2022-03-21 14:35:25:556
-0.0482;0.1627;9.8477;-0.0442;0.1359;9.8056;-0.0086;0.011;0.0046;-0.0014;-0.0023;5.0E-4;489.0;11.42;10.2;-28.16;313.69;-0.8;0.26;2.0;55.873524;-4.292516;202.93;NaN;8.39;148.69676;71.1;5 / 29;37011;2022-03-21 14:35:25:656
-0.0482;0.1711;9.8513;-0.0449;0.135;9.8056;-0.0136;0.0039;-0.0055;-0.0014;-0.0023;5.0E-4;489.0;11.68;10.46;-28.46;311.18;-0.79;0.26;2.0;55.873524;-4.292516;202.93;NaN;8.39;148.69676;71.1;5 / 29;37111;2022-03-21 14:35:25:756
-0.0601;0.1232;9.8142;-0.0448;0.1367;9.8056;-0.0064;0.0133;0.0133;-0.0012;-0.0021;6.0E-4;489.0;11.68;10.46;-28.46;311.18;-0.79;0.26;2.0;55.873524;-4.292516;202.93;NaN;8.39;148.69676;71.1;5 / 29;37211;2022-03-21 14:35:25:856
-0.0517;0.1316;9.8237;-0.0452;0.1353;9.8056;-0.0092;0.0059;0.0042;-0.0012;-0.002;8.0E-4;489.0;11.51;10.16;-28.82;311.24;-0.8;0.26;2.0;55.873524;-4.292516;202.93;NaN;8.39;148.69676;71.1;5 / 29;37311;2022-03-21 14:35:25:956
-0.047;0.1531;9.8321;-0.0452;0.1353;9.8056;-0.0092;0.0059;0.0042;-0.0011;-0.0021;6.0E-4;489.0;11.51;10.16;-28.82;311.24;-0.8;0.26;2.0;55.873524;-4.292516;202.93;NaN;8.39;148.69676;71.1;5 / 29;37411;2022-03-21 14:35:26:056
-0.0553;0.1388;9.8381;-0.0449;0.1363;9.8056;-0.0059;0.0046;-0.0038;-0.0011;-0.0021;6.0E-4;489.0;11.48;9.96;-28.56;313.74;-0.79;0.26;2.0;55.873524;-4.292516;202.93;NaN;8.39;148.69676;71.1;5 / 29;37511;2022-03-21 14:35:26:156
-0.0553;0.1388;9.8405;-0.0449;0.1366;9.8056;-0.0079;0.0078;0.0027;-0.0011;-0.0023;5.0E-4;489.0;11.48;9.96;-28.56;313.74;-0.79;0.26;2.0;55.873524;-4.292516;202.93;NaN;8.39;148.69676;71.1;5 / 29;37611;2022-03-21 14:35:26:256
-0.0649;0.1531;9.8393;-0.0442;0.1356;9.8056;-0.0054;0.0045;-0.0095;-0.0011;-0.0024;6.0E-4;489.0;11.51;10.16;-28.26;311.19;-0.8;0.26;2.0;55.873524;-4.292516;202.93;NaN;8.39;148.69676;71.1;5 / 29;37711;2022-03-21 14:35:26:356
-0.0613;0.1352;9.8261;-0.0439;0.1362;9.8056;-0.0081;0.0047;0.003;-0.0011;-0.0024;6.0E-4;489.0;11.51;10.16;-28.26;311.19;-0.8;0.26;2.0;55.873524;-4.292516;202.93;NaN;8.39;148.69676;71.1;5 / 29;37811;2022-03-21 14:35:26:456
-0.0577;0.1364;9.8213;-0.0448;0.1367;9.8056;-0.006;0.0093;0.0082;2.0E-4;-8.0E-4;0.0012;489.0;11.53;10.35;-28.35;311.18;-0.8;0.26;2.0;55.873524;-4.292516;202.93;NaN;8.39;148.69676;71.1;5 / 29;37911;2022-03-21 14:35:26:556
-0.0482;0.134;9.8237;-0.0448;0.1359;9.8056;-0.0104;9.0E-4;-0.0025;-0.0015;-0.0018;6.0E-4;489.0;11.53;10.35;-28.35;311.18;-0.8;0.26;2.0;55.873524;-4.292516;202.93;NaN;8.39;148.69676;71.1;5 / 29;38011;2022-03-21 14:35:26:656
-0.0505;0.1472;9.8285;-0.0442;0.1368;9.8056;-0.0106;0.01;0.0067;-9.0E-4;-0.0023;5.0E-4;489.0;11.81;10.33;-28.33;311.19;-0.79;0.26;2.0;55.873524;-4.292516;202.93;NaN;8.39;148.69676;71.1;5 / 29;38112;2022-03-21 14:35:26:757
-0.0422;0.1507;9.9003;-0.0442;0.1368;9.8056;-0.0106;0.01;0.0067;-0.0057;9.0E-4;9.0E-4;489.0;11.63;10.24;-28.22;311.19;-0.8;0.26;2.0;55.873524;-4.292516;202.93;NaN;8.39;148.69676;71.1;5 / 29;38213;2022-03-21 14:35:26:858
-0.0864;0.1101;9.7986;-0.0447;0.1358;9.8056;-0.0101;0.0145;0.0227;-0.0057;9.0E-4;9.0E-4;489.0;11.63;10.24;-28.22;311.19;-0.8;0.26;2.0;55.873524;-4.292516;202.93;NaN;8.39;148.69676;71.1;5 / 29;38311;2022-03-21 14:35:26:956
-0.0649;0.1807;9.8285;-0.0481;0.1297;9.8057;-0.0183;-0.018;-0.0534;-0.0011;-0.0021;6.0E-4;489.0;11.63;10.24;-28.22;311.19;-0.8;0.26;2.0;55.873524;-4.292516;202.93;NaN;8.39;148.69676;71.1;5 / 29;38412;2022-03-21 14:35:27:057
-0.0541;0.1172;9.8178;-0.0478;0.1302;9.8057;-0.0094;0.0111;0.009;-0.0011;-0.002;8.0E-4;489.0;11.7;10.52;-27.67;313.79;-0.76;0.28;2.0;55.873524;-4.292516;202.93;NaN;8.39;148.69676;71.1;5 / 29;38511;2022-03-21 14:35:27:156
-0.0505;0.1172;9.8333;-0.0473;0.13;9.8057;-0.0079;0.0077;0.0037;-0.0018;-0.002;6.0E-4;489.0;11.7;10.52;-27.67;313.79;-0.76;0.28;2.0;55.873524;-4.292516;202.93;NaN;8.39;148.69676;71.1;5 / 29;38612;2022-03-21 14:35:27:257
-0.047;0.1783;9.8764;-0.0472;0.1289;9.8057;-0.0084;8.0E-4;-0.0012;-0.0018;-0.002;6.0E-4;489.0;11.76;10.69;-27.69;313.78;-0.76;0.28;2.0;55.873524;-4.292516;202.93;NaN;8.39;148.69676;71.1;5 / 29;38712;2022-03-21 14:35:27:357
-0.0374;0.1196;9.8273;-0.0477;0.1285;9.8057;-0.0091;-0.0028;-0.0031;-0.0014;-0.0021;8.0E-4;489.0;11.76;10.69;-27.69;313.78;-0.76;0.28;2.0;55.873524;-4.292516;202.93;NaN;8.39;148.69676;71.1;5 / 29;38812;2022-03-21 14:35:27:457
-0.0541;0.1232;9.8178;-0.0477;0.1285;9.8057;-0.0091;-0.0028;-0.0031;-0.0021;-0.0018;8.0E-4;489.0;11.76;10.69;-27.86;313.77;-0.75;0.28;2.0;55.873524;-4.292516;202.93;NaN;8.39;148.69676;71.1;5 / 29;38912;2022-03-21 14:35:27:557
-0.0517;0.1531;9.8429;-0.0476;0.1282;9.8057;-0.0088;0.0079;7.0E-4;-0.0011;-0.0018;6.0E-4;489.0;11.76;10.69;-27.86;313.77;-0.75;0.28;2.0;55.873524;-4.292516;202.93;NaN;8.39;148.69676;71.1;5 / 29;39012;2022-03-21 14:35:27:657
-0.0553;0.1316;9.8237;-0.0476;0.1293;9.8057;-0.0128;0.0147;0.002;-0.0011;-0.0018;6.0E-4;489.0;11.55;10.46;-28.05;311.14;-0.75;0.28;2.0;55.873524;-4.292516;202.93;NaN;8.39;148.69676;71.1;5 / 29;39112;2022-03-21 14:35:27:757
-0.0601;0.128;9.8345;-0.0476;0.1299;9.8057;-0.0108;0.0069;-0.0049;-0.0015;-0.0024;6.0E-4;489.0;11.55;10.46;-28.05;311.14;-0.75;0.28;2.0;55.873524;-4.292516;202.93;NaN;8.39;148.69676;71.1;5 / 29;39211;2022-03-21 14:35:27:856
-0.0649;0.1484;9.8309;-0.0478;0.1304;9.8057;-0.009;0.0045;-0.0046;-3.0E-4;-0.0021;6.0E-4;489.0;11.48;10.58;-28.16;316.31;-0.76;0.28;2.0;55.873524;-4.292516;202.93;NaN;8.39;148.69676;71.1;5 / 29;39312;2022-03-21 14:35:27:957
-0.0637;0.1364;9.8441;-0.0472;0.1304;9.8057;-0.0056;0.0037;-4.0E-4;-3.0E-4;-0.0021;6.0E-4;489.0;11.55;10.46;-27.84;316.31;-0.76;0.28;2.0;55.873524;-4.292516;202.93;NaN;8.39;148.69676;71.1;5 / 29;39411;2022-03-21 14:35:28:056
-0.0673;0.1292;9.8237;-0.0473;0.1296;9.8057;-0.0107;0.0029;0.002;-0.0012;-0.0023;6.0E-4;489.0;11.63;10.63;-28.16;313.78;-0.76;0.28;2.0;55.873524;-4.292516;202.93;NaN;8.39;148.69676;71.1;5 / 29;39512;2022-03-21 14:35:28:157
-0.0625;0.1268;9.8261;-0.0472;0.1296;9.8057;-0.0096;0.0036;-0.0029;-0.0012;-0.0017;0.0011;489.0;11.63;10.63;-28.16;313.78;-0.76;0.28;2.0;55.873524;-4.292516;202.93;NaN;8.39;148.69676;71.1;5 / 29;39612;2022-03-21 14:35:28:257
-0.0589;0.1472;9.8381;-0.0472;0.1296;9.8057;-0.0096;0.0036;-0.0029;-9.0E-4;-0.0017;8.0E-4;489.0;11.18;10.5;-28.31;316.3;-0.76;0.28;2.0;55.873524;-4.292516;202.93;NaN;8.39;148.69676;71.1;5 / 29;39712;2022-03-21 14:35:28:357
-0.0577;0.1424;9.8345;-0.0477;0.1302;9.8057;-0.0103;0.0079;-0.0014;-0.0015;-0.0021;9.0E-4;489.0;11.18;10.5;-28.31;316.3;-0.76;0.28;2.0;55.873524;-4.292516;202.93;NaN;8.39;148.69676;71.1;5 / 29;39812;2022-03-21 14:35:28:457
-0.0505;0.146;9.8441;-0.0477;0.1309;9.8057;-0.0095;0.0095;-0.0029;-0.0015;-0.0021;9.0E-4;489.0;11.34;10.31;-28.33;313.67;-0.76;0.28;2.0;55.873524;-4.292516;202.93;NaN;8.39;148.69676;71.1;5 / 29;39911;2022-03-21 14:35:28:556
-0.047;0.134;9.8321;-0.0473;0.1305;9.8057;-0.0063;0.0016;-0.0035;-0.0017;-0.0023;8.0E-4;489.0;11.34;10.31;-28.33;313.67;-0.76;0.28;2.0;55.873524;-4.292516;202.93;NaN;8.39;148.69676;71.1;5 / 29;40011;2022-03-21 14:35:28:656
-0.0613;0.1268;9.8178;-0.0471;0.1301;9.8057;-0.0097;0.0024;-4.0E-4;-0.0014;-0.0023;5.0E-4;489.0;11.34;10.11;-28.24;313.67;-0.76;0.28;2.0;55.873524;-4.292516;202.93;NaN;8.39;148.69676;71.1;5 / 29;40111;2022-03-21 14:35:28:756
-0.0482;0.1472;9.8465;-0.047;0.1301;9.8057;-0.0118;0.008;-0.0037;-8.0E-4;-0.0015;9.0E-4;489.0;11.34;10.11;-28.24;313.67;-0.76;0.28;2.0;55.873524;-4.292516;202.93;NaN;8.39;148.69676;71.1;5 / 29;40213;2022-03-21 14:35:28:858
-0.0577;0.1316;9.8333;-0.0471;0.1306;9.8057;-0.0061;0.0079;0.0032;-8.0E-4;-0.0015;9.0E-4;489.0;11.64;10.13;-28.14;311.16;-0.76;0.27;2.0;55.873524;-4.292516;202.93;NaN;8.39;148.69676;71.1;5 / 29;40312;2022-03-21 14:35:28:957
-0.0553;0.128;9.8237;-0.0472;0.1302;9.8057;-0.0076;0.0071;-0.0015;-0.0014;-0.0021;8.0E-4;489.0;11.64;10.13;-28.14;311.16;-0.76;0.27;2.0;55.873524;-4.292516;202.93;NaN;8.39;148.69676;71.1;5 / 29;40411;2022-03-21 14:35:29:056
-0.0529;0.1388;9.8453;-0.0472;0.1302;9.8057;-0.0076;0.0071;-0.0015;-0.0012;-0.0015;9.0E-4;489.0;11.36;10.05;-28.31;313.67;-0.76;0.28;2.0;55.873524;-4.292516;202.93;NaN;8.39;148.69676;71.1;5 / 29;40513;2022-03-21 14:35:29:158
-0.0565;0.1256;9.8321;-0.0479;0.1303;9.8057;-0.0093;0.0034;-0.0024;-0.0012;-0.0023;6.0E-4;489.0;11.36;10.05;-28.31;313.67;-0.76;0.28;2.0;55.873524;-4.292516;202.93;NaN;8.39;148.69676;71.1;5 / 29;40611;2022-03-21 14:35:29:256
-0.0577;0.134;9.8201;-0.0475;0.1303;9.8057;-0.0077;0.0022;0.0015;-0.0012;-0.0023;6.0E-4;489.0;11.18;9.96;-28.54;313.72;-0.76;0.28;2.0;55.873524;-4.292516;202.93;NaN;8.39;148.69676;71.1;5 / 29;40713;2022-03-21 14:35:29:358
-0.0565;0.1507;9.8477;-0.0475;0.1309;9.8057;-0.0085;0.0104;0.0026;-0.0012;-0.0021;6.0E-4;489.0;11.16;10.01;-28.29;313.68;-0.76;0.28;2.0;55.873524;-4.292516;202.93;NaN;8.39;148.69676;71.1;5 / 29;40813;2022-03-21 14:35:29:458
-0.0529;0.1328;9.8261;-0.0468;0.1313;9.8057;-0.008;0.0088;4.0E-4;-0.0015;-0.0021;6.0E-4;489.0;11.16;10.01;-28.29;313.68;-0.76;0.28;2.0;55.873524;-4.292516;202.93;NaN;8.39;148.69676;71.1;5 / 29;40913;2022-03-21 14:35:29:558
-0.0565;0.1244;9.8178;-0.0468;0.1298;9.8057;-0.012;0.0035;-0.0011;-0.0015;-0.0021;6.0E-4;489.0;11.16;10.01;-28.29;313.68;-0.76;0.28;2.0;55.873524;-4.292516;202.93;NaN;8.39;148.69676;71.1;5 / 29;41012;2022-03-21 14:35:29:657
-0.0577;0.1436;9.8453;-0.0469;0.13;9.8057;-0.0135;0.0021;-0.0037;-9.0E-4;-0.002;8.0E-4;489.0;11.23;10.22;-28.28;313.66;-0.76;0.27;2.0;55.873524;-4.292516;202.93;NaN;8.39;148.69676;71.1;5 / 29;41111;2022-03-21 14:35:29:756
-0.0625;0.1304;9.8285;-0.0469;0.13;9.8057;-0.0135;0.0021;-0.0037;-5.0E-4;-0.002;5.0E-4;489.0;11.23;10.22;-28.28;313.66;-0.76;0.27;2.0;55.873524;-4.292516;202.93;NaN;8.39;148.69676;71.1;5 / 29;41212;2022-03-21 14:35:29:857
-0.0589;0.1352;9.8189;-0.0472;0.1306;9.8057;-0.0108;0.0047;-0.0045;-0.0015;-0.0021;6.0E-4;489.0;11.31;10.5;-28.44;316.3;-0.76;0.27;2.0;55.873524;-4.292516;202.93;NaN;8.39;148.69676;71.1;5 / 29;41311;2022-03-21 14:35:29:956
-0.0517;0.1543;9.8465;-0.0468;0.1313;9.8057;-0.0052;0.0124;0.003;-0.0014;-0.0023;0.0011;489.0;11.31;10.5;-28.44;316.3;-0.76;0.27;2.0;55.873524;-4.292516;202.93;NaN;8.39;148.69676;71.1;5 / 29;41411;2022-03-21 14:35:30:056
-0.0565;0.134;9.8261;-0.0467;0.1314;9.8057;-0.009;0.0146;0.0053;-0.0014;-0.0023;0.0011;489.0;11.36;10.63;-28.39;316.31;-0.77;0.27;2.0;55.873524;-4.292516;202.93;NaN;8.39;148.69676;71.1;5 / 29;41512;2022-03-21 14:35:30:157
-0.0673;0.1244;9.8201;-0.0472;0.1312;9.8057;-0.0124;0.0049;-5.0E-4;-0.0012;-0.002;0.0014;489.0;11.36;10.63;-28.39;316.31;-0.77;0.27;2.0;55.873524;-4.292516;202.93;NaN;8.39;148.69676;71.1;5 / 29;41612;2022-03-21 14:35:30:257
-0.0601;0.1496;9.8501;-0.0477;0.1311;9.8057;-0.0104;-0.0022;-0.0079;-9.0E-4;-0.0018;0.0011;489.0;11.42;10.46;-28.35;313.68;-0.77;0.28;2.0;55.873524;-4.292516;202.93;NaN;8.39;148.69676;71.1;5 / 29;41715;2022-03-21 14:35:30:360
-0.0565;0.1424;9.8429;-0.0471;0.1315;9.8057;-0.0046;0.0014;0.0034;-8.0E-4;-0.0017;6.0E-4;489.0;11.55;10.29;-28.26;311.17;-0.77;0.27;2.0;55.873524;-4.292516;202.93;NaN;8.39;148.69676;71.1;5 / 29;41814;2022-03-21 14:35:30:459
-0.0589;0.122;9.8142;-0.047;0.1319;9.8057;-0.0074;0.0046;0.0024;-8.0E-4;-0.0017;6.0E-4;489.0;11.55;10.29;-28.26;311.17;-0.77;0.27;2.0;55.873524;-4.292516;202.93;NaN;8.39;148.69676;71.1;5 / 29;41912;2022-03-21 14:35:30:557
-0.0553;0.1436;9.8369;-0.047;0.1319;9.8057;-0.0074;0.0046;0.0024;-0.0012;-0.002;8.0E-4;489.0;11.66;10.16;-28.33;311.17;-0.77;0.27;2.0;55.873524;-4.292516;202.93;NaN;8.39;148.69676;71.1;5 / 29;42011;2022-03-21 14:35:30:656
-0.0661;0.1244;9.8225;-0.0479;0.1321;9.8056;-0.0077;0.0111;0.0026;-0.0018;-0.0021;0.0011;489.0;11.91;10.26;-28.2;311.18;-0.77;0.28;2.0;55.873524;-4.292516;202.93;NaN;8.39;148.69676;71.1;5 / 29;42113;2022-03-21 14:35:30:758
-0.0517;0.1603;9.8477;-0.0477;0.1306;9.8057;-0.0099;-0.0033;-0.0014;-0.0017;-0.0017;6.0E-4;489.0;11.91;10.26;-28.2;311.18;-0.77;0.28;2.0;55.873524;-4.292516;202.93;NaN;8.39;148.69676;71.1;5 / 29;42211;2022-03-21 14:35:30:856
-0.0601;0.1268;9.8237;-0.0476;0.1303;9.8057;-0.0104;0.0037;-0.0045;-0.0017;-0.0017;6.0E-4;489.0;12.0;10.2;-28.52;311.21;-0.76;0.28;2.0;55.873524;-4.292516;202.93;NaN;8.39;148.69676;71.1;5 / 29;42311;2022-03-21 14:35:30:956
-0.0565;0.1232;9.8261;-0.0477;0.1307;9.8057;-0.0099;0.0046;-9.0E-4;-0.0015;-0.0021;9.0E-4;489.0;11.91;10.31;-28.24;311.21;-0.76;0.28;2.0;55.873524;-4.292516;202.93;NaN;8.39;148.69676;71.1;5 / 29;42412;2022-03-21 14:35:31:057
-0.0505;0.1591;9.8584;-0.0475;0.1306;9.8057;-0.0081;0.0066;0.0084;-6.0E-4;-0.0018;9.0E-4;489.0;11.61;10.43;-28.33;311.16;-0.76;0.28;2.0;55.873524;-4.292516;202.93;NaN;8.39;148.69676;71.1;5 / 29;42511;2022-03-21 14:35:31:156
-0.0613;0.1268;9.8273;-0.0483;0.1311;9.8057;-0.0077;0.0065;0.0038;-6.0E-4;-0.0018;9.0E-4;489.0;11.61;10.43;-28.33;311.16;-0.76;0.28;2.0;55.873524;-4.292516;202.93;NaN;8.39;148.69676;71.1;5 / 29;42612;2022-03-21 14:35:31:257
-0.0553;0.1232;9.8285;-0.048;0.1302;9.8057;-0.0108;0.0014;-0.0026;-0.0014;-0.0024;9.0E-4;489.0;11.4;10.61;-28.22;316.32;-0.77;0.28;2.0;55.873524;-4.292516;202.93;NaN;8.39;148.69676;71.1;5 / 29;42711;2022-03-21 14:35:31:356
-0.0553;0.1507;9.8453;-0.048;0.1302;9.8057;-0.0108;0.0014;-0.0026;-0.0012;-0.002;6.0E-4;489.0;11.4;10.61;-28.22;316.32;-0.77;0.28;2.0;55.873524;-4.292516;202.93;NaN;8.39;148.69676;71.1;5 / 29;42811;2022-03-21 14:35:31:456
-0.0601;0.1292;9.8333;-0.0483;0.1299;9.8057;-0.0117;-0.0022;-0.0082;0.0;-2.0E-4;0.0014;489.0;11.03;10.59;-28.13;316.31;-0.76;0.28;2.0;55.873524;-4.292516;202.93;NaN;8.39;148.69676;71.1;5 / 29;42911;2022-03-21 14:35:31:556
-0.0589;0.1304;9.8321;-0.0494;0.1307;9.8057;-0.011;6.0E-4;0.001;-0.0014;-0.0017;6.0E-4;489.0;11.03;10.59;-28.13;316.31;-0.76;0.28;2.0;55.873524;-4.292516;202.93;NaN;8.39;148.69676;71.1;5 / 29;43011;2022-03-21 14:35:31:656
-0.0494;0.1436;9.8489;-0.0494;0.1313;9.8056;-0.0074;0.012;0.0024;-0.0014;-0.0017;6.0E-4;489.0;11.18;10.44;-28.39;313.69;-0.76;0.29;2.0;55.873524;-4.292516;202.93;NaN;8.39;148.69676;71.1;5 / 29;43111;2022-03-21 14:35:31:756
-0.0541;0.1352;9.8369;-0.0486;0.1305;9.8057;-0.0046;0.008;0.0018;-0.0017;-0.002;6.0E-4;489.0;11.19;10.22;-28.93;313.69;-0.76;0.29;2.0;55.873524;-4.292516;202.93;NaN;8.39;148.69676;71.1;5 / 29;43211;2022-03-21 14:35:31:856
-0.0517;0.1364;9.8261;-0.0483;0.1302;9.8057;-0.0101;0.0047;0.0024;-0.0014;-0.0023;9.0E-4;489.0;11.25;10.2;-29.04;313.73;-0.76;0.28;2.0;55.873524;-4.292516;202.93;NaN;8.39;148.69676;71.1;5 / 29;43312;2022-03-21 14:35:31:957
-0.0541;0.1484;9.8417;-0.0484;0.13;9.8057;-0.0108;-0.0019;-0.0111;-0.0012;-0.0018;6.0E-4;489.0;11.25;10.2;-29.04;313.73;-0.76;0.28;2.0;55.873524;-4.292516;202.93;NaN;8.39;148.69676;71.1;5 / 29;43411;2022-03-21 14:35:32:056
-0.0637;0.1292;9.8237;-0.0484;0.13;9.8057;-0.0108;-0.0019;-0.0111;-0.0012;-0.0018;6.0E-4;489.0;11.72;10.13;-29.04;311.21;-0.76;0.28;2.0;55.873524;-4.292516;202.93;NaN;8.39;148.69676;71.1;5 / 29;43511;2022-03-21 14:35:32:156
-0.0505;0.1448;9.8465;-0.048;0.1302;9.8057;-0.0084;0.0054;-0.0011;-0.0012;-0.0023;6.0E-4;489.0;11.72;10.13;-29.04;311.21;-0.76;0.28;2.0;55.873524;-4.292516;202.93;NaN;8.39;148.69676;71.1;5 / 29;43612;2022-03-21 14:35:32:257
-0.0589;0.1328;9.8261;-0.0479;0.1299;9.8057;-0.0082;0.0054;0.0036;-0.0014;-0.0017;9.0E-4;489.0;11.44;10.28;-28.72;313.72;-0.76;0.28;2.0;55.873524;-4.292516;202.93;NaN;8.39;148.69676;71.1;5 / 29;43711;2022-03-21 14:35:32:356
-0.0601;0.1268;9.8237;-0.0482;0.1298;9.8057;-0.0062;0.0099;0.0023;-8.0E-4;-0.0018;8.0E-4;489.0;11.31;10.13;-28.48;313.72;-0.76;0.28;2.0;55.873524;-4.292516;202.93;NaN;8.39;148.69676;71.1;5 / 29;43811;2022-03-21 14:35:32:456
-0.0494;0.1507;9.8489;-0.0485;0.1296;9.8057;-0.0123;5.0E-4;-0.0044;-8.0E-4;-0.0018;8.0E-4;489.0;11.27;10.05;-28.41;313.67;-0.76;0.28;2.0;55.873524;-4.292516;202.93;NaN;8.39;148.69676;71.1;5 / 29;43912;2022-03-21 14:35:32:557
-0.0601;0.1328;9.8309;-0.0486;0.1297;9.8057;-0.0098;3.0E-4;-0.0047;-6.0E-4;-0.0017;8.0E-4;489.0;11.38;10.18;-28.28;313.68;-0.76;0.28;2.0;55.873524;-4.292516;202.93;NaN;8.39;148.69676;71.1;5 / 29;44011;2022-03-21 14:35:32:656
-0.0565;0.1196;9.8225;-0.049;0.1301;9.8057;-0.0102;0.0079;-9.0E-4;-9.0E-4;-0.0017;9.0E-4;489.0;11.38;10.18;-28.28;313.68;-0.76;0.28;2.0;55.873524;-4.292516;202.93;NaN;8.39;148.69676;71.1;5 / 29;44111;2022-03-21 14:35:32:756
-0.0517;0.1496;9.8501;-0.0485;0.1303;9.8057;-0.0063;0.0082;0.007;-9.0E-4;-0.0017;9.0E-4;489.0;11.38;10.18;-28.28;313.68;-0.76;0.28;2.0;55.873524;-4.292516;202.93;NaN;8.39;148.69676;71.1;5 / 29;44211;2022-03-21 14:35:32:856
-0.0565;0.1412;9.8321;-0.0485;0.1303;9.8057;-0.0063;0.0082;0.007;-0.0014;-0.0017;6.0E-4;489.0;11.78;10.2;-27.82;311.17;-0.76;0.28;2.0;55.873524;-4.292516;202.93;NaN;8.39;148.69676;71.1;5 / 29;44311;2022-03-21 14:35:32:956
-0.0577;0.128;9.8213;-0.0486;0.1304;9.8057;-0.0066;0.0084;0.0021;-0.0011;-0.0017;8.0E-4;489.0;11.78;10.2;-27.82;311.17;-0.76;0.28;2.0;55.873524;-4.292516;202.93;NaN;8.39;148.69676;71.1;5 / 29;44411;2022-03-21 14:35:33:056
-0.0482;0.1436;9.8524;-0.0485;0.1309;9.8057;-0.0083;0.0024;-0.0014;-6.0E-4;-0.002;6.0E-4;489.0;11.85;10.31;-27.96;311.17;-0.76;0.28;2.0;55.873524;-4.292516;202.93;NaN;8.39;148.69676;71.1;5 / 29;44511;2022-03-21 14:35:33:156
-0.0565;0.1388;9.8285;-0.0489;0.1311;9.8057;-0.0099;0.0013;-9.0E-4;-6.0E-4;-0.0014;0.0014;489.0;11.85;10.31;-27.96;311.17;-0.76;0.28;2.0;55.873524;-4.292516;202.93;NaN;8.39;148.69676;71.1;5 / 29;44611;2022-03-21 14:35:33:256
-0.0601;0.1256;9.8189;-0.0492;0.1318;9.8056;-0.0092;0.0062;1.0E-4;-6.0E-4;-0.0014;0.0014;489.0;11.83;9.86;-28.13;311.18;-0.77;0.29;2.0;55.873524;-4.292516;202.93;NaN;8.39;148.69676;71.1;5 / 29;44711;2022-03-21 14:35:33:356
-0.0601;0.1507;9.8536;-0.049;0.1311;9.8057;-0.0046;0.0042;0.0063;-9.0E-4;-0.0014;9.0E-4;489.0;11.83;9.86;-28.13;311.18;-0.77;0.29;2.0;55.873524;-4.292516;202.93;NaN;8.39;148.69676;71.1;5 / 29;44811;2022-03-21 14:35:33:456
-0.0613;0.134;9.8345;-0.0496;0.1316;9.8056;-0.0096;0.0081;0.0017;-6.0E-4;-0.0018;0.0014;489.0;11.59;9.69;-28.37;311.18;-0.77;0.29;2.0;55.873524;-4.292516;202.93;NaN;8.39;148.69676;71.1;5 / 29;44911;2022-03-21 14:35:33:556
-0.0601;0.1232;9.8166;-0.0495;0.1315;9.8056;-0.0069;0.0014;-0.005;-8.0E-4;-0.0015;9.0E-4;489.0;11.59;9.69;-28.37;311.18;-0.77;0.29;2.0;55.873524;-4.292516;202.93;NaN;8.39;148.69676;71.1;5 / 29;45011;2022-03-21 14:35:33:656
-0.0494;0.1436;9.8417;-0.0495;0.1315;9.8056;-0.0069;0.0014;-0.005;-8.0E-4;-0.0015;9.0E-4;489.0;11.49;9.75;-27.82;313.7;-0.77;0.29;2.0;55.873524;-4.292516;202.93;NaN;8.39;148.69676;71.1;5 / 29;45112;2022-03-21 14:35:33:757
-0.0613;0.1316;9.8333;-0.0493;0.1305;9.8057;-0.0051;-0.0032;-0.0048;-0.0011;-0.0014;9.0E-4;489.0;11.49;9.75;-27.82;313.7;-0.77;0.29;2.0;55.873524;-4.292516;202.93;NaN;8.39;148.69676;71.1;5 / 29;45211;2022-03-21 14:35:33:856
-0.0577;0.1268;9.8166;-0.0502;0.1304;9.8057;-0.0117;0.0016;-0.0016;-5.0E-4;-0.0014;8.0E-4;489.0;11.34;10.16;-27.73;313.69;-0.76;0.29;2.0;55.873524;-4.292516;202.93;NaN;8.39;148.69676;71.1;5 / 29;45311;2022-03-21 14:35:33:956
-0.0613;0.1472;9.8381;-0.0503;0.1316;9.8056;-0.0061;0.0092;0.0047;-3.0E-4;-0.002;6.0E-4;489.0;11.34;10.46;-27.97;313.7;-0.77;0.29;2.0;55.873524;-4.292516;202.93;NaN;8.39;148.69676;71.1;5 / 29;45412;2022-03-21 14:35:34:057
-0.0589;0.1292;9.8357;-0.0507;0.1317;9.8056;-0.0097;0.0043;-5.0E-4;-3.0E-4;-0.002;6.0E-4;489.0;11.34;10.46;-27.97;313.7;-0.77;0.29;2.0;55.873524;-4.292516;202.93;NaN;8.39;148.69676;71.1;5 / 29;45511;2022-03-21 14:35:34:156
-0.0625;0.128;9.8309;-0.0508;0.1317;9.8056;-0.0056;0.0028;-0.0023;-5.0E-4;-0.0012;0.0011;489.0;11.34;10.46;-27.97;313.7;-0.77;0.29;2.0;55.873524;-4.292516;202.93;NaN;8.39;148.69676;71.1;5 / 29;45611;2022-03-21 14:35:34:256
-0.0565;0.1496;9.8405;-0.0502;0.1321;9.8056;-0.0062;0.0039;-0.0029;-9.0E-4;-0.0021;8.0E-4;489.0;11.42;10.56;-28.54;316.39;-0.77;0.3;2.0;55.873524;-4.292516;202.93;NaN;8.39;148.69676;71.1;5 / 29;45711;2022-03-21 14:35:34:356
-0.0637;0.128;9.8321;-0.0502;0.1321;9.8056;-0.0062;0.0039;-0.0029;-6.0E-4;-0.0015;0.0014;489.0;11.42;10.56;-28.54;316.39;-0.77;0.3;2.0;55.873524;-4.292516;202.93;NaN;8.39;148.69676;71.1;5 / 29;45811;2022-03-21 14:35:34:456
-0.0673;0.14;9.8381;-0.0498;0.1324;9.8056;-0.0078;0.0024;-0.0035;-6.0E-4;-0.0015;0.0014;489.0;11.68;10.26;-28.5;311.24;-0.77;0.29;2.0;55.873524;-4.292516;202.93;NaN;8.39;148.69676;71.1;5 / 29;45911;2022-03-21 14:35:34:556
-0.0613;0.1304;9.8369;-0.0492;0.1328;9.8056;-0.0076;0.008;3.0E-4;-5.0E-4;-0.0017;8.0E-4;489.0;11.68;10.26;-28.5;311.24;-0.77;0.29;2.0;55.873524;-4.292516;202.93;NaN;8.39;148.69676;71.1;5 / 29;46012;2022-03-21 14:35:34:657
-0.0577;0.1316;9.8381;-0.0493;0.1322;9.8056;-0.0043;0.0047;5.0E-4;-6.0E-4;-0.0011;0.0011;489.0;11.63;9.73;-28.54;311.24;-0.78;0.29;2.0;55.873524;-4.292516;202.93;NaN;8.39;148.69676;71.1;5 / 29;46111;2022-03-21 14:35:34:756
-0.0541;0.1388;9.8429;-0.0504;0.132;9.8056;-0.0104;0.0041;-0.0013;-9.0E-4;-0.0018;0.0011;489.0;11.63;9.73;-28.54;311.24;-0.78;0.29;2.0;55.873524;-4.292516;202.93;NaN;8.39;148.69676;71.1;5 / 29;46211;2022-03-21 14:35:34:856
-0.0553;0.1316;9.8321;-0.05;0.1318;9.8056;-0.0084;0.0023;-0.0056;-9.0E-4;-0.0018;0.0011;489.0;11.66;9.56;-28.18;311.19;-0.77;0.29;2.0;55.873524;-4.292516;202.93;NaN;8.39;148.69676;71.1;5 / 29;46311;2022-03-21 14:35:34:956
-0.0577;0.134;9.8321;-0.05;0.1315;9.8056;-0.01;0.0017;-0.0014;-0.0011;-0.002;9.0E-4;489.0;11.66;9.56;-28.18;311.19;-0.77;0.29;2.0;55.873524;-4.292516;202.93;NaN;8.39;148.69676;71.1;5 / 29;46411;2022-03-21 14:35:35:056
-0.0613;0.1412;9.8393;-0.0498;0.1319;9.8056;-0.0062;0.0037;0.0061;-8.0E-4;-0.0018;0.0011;489.0;11.23;10.11;-28.28;313.7;-0.77;0.29;2.0;55.873524;-4.292516;202.93;NaN;8.39;148.69676;71.1;5 / 29;46511;2022-03-21 14:35:35:156
-0.0577;0.1328;9.8297;-0.0498;0.1319;9.8056;-0.0062;0.0037;0.0061;-8.0E-4;-0.0015;0.0014;489.0;11.23;10.11;-28.28;313.7;-0.77;0.29;2.0;55.873524;-4.292516;202.93;NaN;8.39;148.69676;71.1;5 / 29;46611;2022-03-21 14:35:35:256
-0.0553;0.1292;9.8321;-0.0502;0.1321;9.8056;-0.007;0.0052;0.0039;-8.0E-4;-0.0015;0.0014;489.0;11.51;10.26;-28.42;311.19;-0.77;0.29;2.0;55.873524;-4.292516;202.93;NaN;8.39;148.69676;71.1;5 / 29;46711;2022-03-21 14:35:35:356
-0.0565;0.14;9.8381;-0.0501;0.1312;9.8056;-0.0059;0.0025;-0.0039;-0.0011;-0.0017;8.0E-4;489.0;11.51;10.26;-28.42;311.19;-0.77;0.29;2.0;55.873524;-4.292516;202.93;NaN;8.39;148.69676;71.1;5 / 29;46811;2022-03-21 14:35:35:456
-0.0625;0.1328;9.8237;-0.0498;0.1308;9.8057;-0.0062;0.0021;-0.0021;-3.0E-4;-0.0015;9.0E-4;489.0;11.19;10.13;-28.24;313.7;-0.77;0.29;2.0;55.873524;-4.292516;202.93;NaN;8.39;148.69676;71.1;5 / 29;46911;2022-03-21 14:35:35:556
-0.0601;0.1316;9.8321;-0.0503;0.1314;9.8056;-0.0113;0.0059;-0.0045;-3.0E-4;-0.0015;9.0E-4;489.0;11.19;10.13;-28.24;313.7;-0.77;0.29;2.0;55.873524;-4.292516;202.93;NaN;8.39;148.69676;71.1;5 / 29;47012;2022-03-21 14:35:35:657
-0.0613;0.1376;9.8465;-0.0505;0.1308;9.8056;-0.0087;0.0025;0.0036;-5.0E-4;-0.002;0.0011;489.0;11.21;10.05;-28.18;313.7;-0.77;0.29;2.0;55.873524;-4.292516;202.93;NaN;8.39;148.69676;71.1;5 / 29;47111;2022-03-21 14:35:35:756
-0.0529;0.1436;9.8465;-0.0501;0.1312;9.8056;-0.0055;0.008;0.0063;-8.0E-4;-0.0017;6.0E-4;489.0;11.21;10.05;-28.18;313.7;-0.77;0.29;2.0;55.873524;-4.292516;202.93;NaN;8.39;148.69676;71.1;5 / 29;47211;2022-03-21 14:35:35:856
-0.0613;0.1268;9.8273;-0.0503;0.131;9.8056;-0.0089;0.0046;0.0019;-0.0011;-0.0017;6.0E-4;489.0;11.16;10.24;-28.29;313.7;-0.77;0.29;2.0;55.873524;-4.292516;202.93;NaN;8.39;148.69676;71.1;5 / 29;47311;2022-03-21 14:35:35:956
-0.0589;0.1316;9.8345;-0.0503;0.131;9.8056;-0.0089;0.0046;0.0019;-6.0E-4;-0.0021;0.0011;489.0;11.16;10.24;-28.29;313.7;-0.77;0.29;2.0;55.873524;-4.292516;202.93;NaN;8.39;148.69676;71.1;5 / 29;47411;2022-03-21 14:35:36:056
-0.0589;0.146;9.8465;-0.05;0.1313;9.8056;-0.008;0.004;-0.0017;-6.0E-4;-0.0021;0.0011;489.0;11.53;10.22;-28.41;311.19;-0.77;0.29;2.0;55.873524;-4.292516;202.93;NaN;8.39;148.69676;71.1;5 / 29;47511;2022-03-21 14:35:36:156
-0.0637;0.1256;9.8261;-0.0498;0.1309;9.8057;-0.0086;-0.0028;-0.0052;-3.0E-4;-0.0015;0.0011;489.0;11.53;10.22;-28.41;311.19;-0.77;0.29;2.0;55.873524;-4.292516;202.93;NaN;8.39;148.69676;71.1;5 / 29;47611;2022-03-21 14:35:36:256
-0.0685;0.1328;9.8405;-0.0499;0.131;9.8056;-0.0085;-1.0E-4;-0.005;-0.0011;-0.0012;9.0E-4;489.0;11.51;10.35;-28.16;311.18;-0.76;0.29;2.0;55.873524;-4.292516;202.93;NaN;8.39;148.69676;71.1;5 / 29;47711;2022-03-21 14:35:36:356
-0.0541;0.122;9.8201;-0.0504;0.1309;9.8056;-0.0052;0.0067;9.0E-4;-8.0E-4;-0.0017;0.0012;489.0;11.51;10.35;-28.16;311.18;-0.76;0.29;2.0;55.873524;-4.292516;202.93;NaN;8.39;148.69676;71.1;5 / 29;47811;2022-03-21 14:35:36:456
-0.0553;0.1364;9.8369;-0.0503;0.1308;9.8056;-0.0053;0.0056;0.0;-8.0E-4;-0.0017;0.0012;489.0;11.51;10.31;-28.03;311.19;-0.77;0.29;2.0;55.873524;-4.292516;202.93;NaN;8.39;148.69676;71.1;5 / 29;47911;2022-03-21 14:35:36:556
-0.0541;0.1507;9.8477;-0.0503;0.1316;9.8056;-0.0061;0.0065;0.0023;-6.0E-4;-0.0015;6.0E-4;489.0;11.51;10.31;-28.03;311.19;-0.77;0.29;2.0;55.873524;-4.292516;202.93;NaN;8.39;148.69676;71.1;5 / 29;48011;2022-03-21 14:35:36:656
-0.0577;0.1232;9.8297;-0.0503;0.1316;9.8056;-0.0061;0.0065;0.0023;-5.0E-4;-0.0015;9.0E-4;489.0;11.74;10.14;-28.11;311.19;-0.77;0.29;2.0;55.873524;-4.292516;202.93;NaN;8.39;148.69676;71.1;5 / 29;48111;2022-03-21 14:35:36:756
-0.0517;0.1316;9.8297;-0.0502;0.1322;9.8056;-0.0082;0.0015;-0.0076;-8.0E-4;-0.0015;0.0012;489.0;11.74;10.14;-28.11;311.19;-0.77;0.29;2.0;55.873524;-4.292516;202.93;NaN;8.39;148.69676;71.1;5 / 29;48211;2022-03-21 14:35:36:856
-0.0505;0.14;9.8357;-0.0504;0.1312;9.8056;-0.0088;-0.0015;-0.0044;-8.0E-4;-0.0015;0.0012;489.0;11.91;10.16;-28.05;311.19;-0.77;0.29;2.0;55.873524;-4.292516;202.93;NaN;8.39;148.69676;71.1;5 / 29;48311;2022-03-21 14:35:36:956
-0.0589;0.122;9.8285;-0.0499;0.1316;9.8056;-0.0057;0.0056;-5.0E-4;-3.0E-4;-0.002;0.0011;489.0;11.91;10.16;-28.05;311.19;-0.77;0.29;2.0;55.873524;-4.292516;202.93;NaN;8.39;148.69676;71.1;5 / 29;48411;2022-03-21 14:35:37:056
-0.0589;0.1364;9.8357;-0.0521;0.1325;9.8056;-0.0059;0.0036;0.008;6.0E-4;-2.0E-4;0.0012;489.0;11.63;10.35;-28.03;311.19;-0.77;0.29;2.0;55.873524;-4.292516;202.93;NaN;8.39;148.69676;71.1;5 / 29;48511;2022-03-21 14:35:37:156
-0.0553;0.1412;9.8477;-0.0524;0.1334;9.8056;-0.0068;0.0058;0.001;6.0E-4;-2.0E-4;0.0012;489.0;11.63;10.35;-28.03;311.19;-0.77;0.29;2.0;55.873524;-4.292516;202.93;NaN;8.39;148.69676;71.1;5 / 29;48611;2022-03-21 14:35:37:256
-0.0625;0.1304;9.8261;-0.0522;0.1323;9.8056;-0.0094;-2.0E-4;-0.005;-8.0E-4;-0.0017;6.0E-4;489.0;11.21;10.11;-28.01;313.73;-0.78;0.31;2.0;55.873524;-4.292516;202.93;NaN;8.39;148.69676;71.1;5 / 29;48711;2022-03-21 14:35:37:356
-0.0505;0.134;9.8273;-0.0518;0.1315;9.8056;-0.0078;-0.0038;2.0E-4;-0.0012;-0.0021;3.0E-4;489.0;11.21;10.11;-28.01;313.73;-0.78;0.31;2.0;55.873524;-4.292516;202.93;NaN;8.39;148.69676;71.1;5 / 29;48811;2022-03-21 14:35:37:456
-0.0494;0.1519;9.8453;-0.0518;0.1315;9.8056;-0.0078;-0.0038;2.0E-4;-8.0E-4;-0.002;8.0E-4;489.0;11.16;10.22;-28.46;313.71;-0.77;0.3;2.0;55.873524;-4.292516;202.93;NaN;8.39;148.69676;71.1;5 / 29;48911;2022-03-21 14:35:37:556
-0.0494;0.146;9.8441;-0.0509;0.1317;9.8056;-0.0035;0.0076;5.0E-4;-9.0E-4;-0.0017;6.0E-4;489.0;11.16;10.22;-28.46;313.71;-0.77;0.3;2.0;55.873524;-4.292516;202.93;NaN;8.39;148.69676;71.1;5 / 29;49011;2022-03-21 14:35:37:656
-0.0553;0.1352;9.8345;-0.0503;0.1319;9.8056;-0.0049;0.0078;0.0053;-9.0E-4;-0.0017;6.0E-4;489.0;11.31;10.28;-28.37;313.71;-0.77;0.3;2.0;55.873524;-4.292516;202.93;NaN;8.39;148.69676;71.1;5 / 29;49112;2022-03-21 14:35:37:757
-0.0553;0.1268;9.8285;-0.0499;0.1314;9.8056;-0.0073;0.0019;-0.0031;-0.0012;-0.002;8.0E-4;489.0;11.31;10.28;-28.37;313.71;-0.77;0.3;2.0;55.873524;-4.292516;202.93;NaN;8.39;148.69676;71.1;5 / 29;49212;2022-03-21 14:35:37:857
-0.0637;0.1472;9.8417;-0.0499;0.1308;9.8057;-0.0097;-0.002;-0.0085;-0.0014;-0.002;6.0E-4;489.0;11.46;10.29;-28.16;313.7;-0.77;0.29;2.0;55.873524;-4.292516;202.93;NaN;8.39;148.69676;71.1;5 / 29;49311;2022-03-21 14:35:37:956
-0.0541;0.1472;9.8441;-0.0509;0.1309;9.8056;-0.0099;0.0035;-0.0041;-0.0012;-0.0017;0.0011;489.0;11.46;10.29;-28.16;313.7;-0.77;0.29;2.0;55.873524;-4.292516;202.93;NaN;8.39;148.69676;71.1;5 / 29;49411;2022-03-21 14:35:38:056
-0.0649;0.1184;9.8237;-0.0504;0.1309;9.8056;-0.0076;0.0103;0.0045;-0.0012;-0.0017;0.0011;489.0;11.55;10.39;-27.82;311.19;-0.77;0.3;2.0;55.873524;-4.292516;202.93;NaN;8.39;148.69676;71.1;5 / 29;49511;2022-03-21 14:35:38:156
-0.0589;0.1436;9.8285;-0.051;0.1312;9.8056;-0.0066;0.0061;0.0053;0.0;-0.0011;8.0E-4;489.0;11.55;10.39;-27.82;311.19;-0.77;0.3;2.0;55.873524;-4.292516;202.93;NaN;8.39;148.69676;71.1;5 / 29;49611;2022-03-21 14:35:38:256
-0.0577;0.1507;9.8441;-0.051;0.1312;9.8056;-0.0066;0.0061;0.0053;-6.0E-4;-0.0018;9.0E-4;489.0;11.49;10.52;-28.14;316.34;-0.77;0.3;2.0;55.873524;-4.292516;202.93;NaN;8.39;148.69676;71.1;5 / 29;49711;2022-03-21 14:35:38:356
-0.0565;0.1256;9.8142;-0.0508;0.1316;9.8056;-0.0076;9.0E-4;-6.0E-4;-6.0E-4;-0.002;8.0E-4;489.0;11.49;10.52;-28.14;316.34;-0.77;0.3;2.0;55.873524;-4.292516;202.93;NaN;8.39;148.69676;71.1;5 / 29;49811;2022-03-21 14:35:38:456
-0.0601;0.1292;9.8417;-0.0506;0.1322;9.8056;-0.0062;0.0031;-0.0074;-6.0E-4;-0.002;8.0E-4;489.0;11.08;10.65;-28.52;316.39;-0.77;0.3;2.0;55.873524;-4.292516;202.93;NaN;8.39;148.69676;71.1;5 / 29;49911;2022-03-21 14:35:38:556
-0.0541;0.1543;9.8405;-0.0503;0.132;9.8056;-0.0081;-3.0E-4;-0.0015;-5.0E-4;-0.0015;0.0012;489.0;10.99;10.37;-28.76;313.76;-0.77;0.29;2.0;55.873524;-4.292516;202.93;NaN;8.39;148.69676;71.1;5 / 29;50011;2022-03-21 14:35:38:656
-0.0601;0.1184;9.8178;-0.0502;0.1324;9.8056;-0.0074;0.0093;-1.0E-4;-3.0E-4;-9.0E-4;9.0E-4;489.0;10.99;10.37;-28.76;313.76;-0.77;0.29;2.0;55.873524;-4.292516;202.93;NaN;8.39;148.69676;71.1;5 / 29;50111;2022-03-21 14:35:38:756
-0.0589;0.134;9.8345;-0.0507;0.1321;9.8056;-0.0069;0.0048;0.0034;-3.0E-4;-9.0E-4;9.0E-4;489.0;10.99;10.37;-28.76;313.76;-0.77;0.29;2.0;55.873524;-4.292516;202.93;NaN;8.39;148.69676;71.1;5 / 29;50211;2022-03-21 14:35:38:856
-0.0553;0.14;9.8405;-0.0505;0.1311;9.8056;-0.0055;2.0E-4;-0.0016;-6.0E-4;-0.0017;6.0E-4;489.0;11.06;10.37;-28.48;313.71;-0.77;0.3;2.0;55.873524;-4.292516;202.93;NaN;8.39;148.69676;71.1;5 / 29;50312;2022-03-21 14:35:38:957
-0.0613;0.1268;9.8118;-0.0505;0.1311;9.8056;-0.0055;2.0E-4;-0.0016;-0.0015;-0.002;8.0E-4;489.0;11.06;10.37;-28.48;313.71;-0.77;0.3;2.0;55.873524;-4.292516;202.93;NaN;8.39;148.69676;71.1;5 / 29;50411;2022-03-21 14:35:39:056
-0.0529;0.1304;9.8393;-0.0502;0.1302;9.8057;-0.0102;-0.0025;-0.0047;-0.0015;-0.0021;9.0E-4;489.0;11.21;10.18;-28.71;313.75;-0.77;0.29;2.0;55.873524;-4.292516;202.93;NaN;8.39;148.69676;71.1;5 / 29;50511;2022-03-21 14:35:39:156
-0.0553;0.1484;9.8441;-0.0496;0.1298;9.8057;-0.0045;7.0E-4;0.0029;-0.0011;-0.0014;8.0E-4;489.0;11.21;10.18;-28.71;313.75;-0.77;0.29;2.0;55.873524;-4.292516;202.93;NaN;8.39;148.69676;71.1;5 / 29;50612;2022-03-21 14:35:39:257
-0.0625;0.1232;9.8154;-0.05;0.1313;9.8056;-0.0068;0.0108;0.0044;-0.0011;-0.0014;8.0E-4;489.0;11.53;10.16;-28.52;311.22;-0.76;0.29;2.0;55.873524;-4.292516;202.93;NaN;8.39;148.69676;71.1;5 / 29;50711;2022-03-21 14:35:39:356
-0.0541;0.14;9.8297;-0.0501;0.1307;9.8057;-0.0067;0.0098;0.0023;-0.0012;-0.002;8.0E-4;489.0;11.53;10.16;-28.52;311.22;-0.76;0.29;2.0;55.873524;-4.292516;202.93;NaN;8.39;148.69676;71.1;5 / 29;50811;2022-03-21 14:35:39:456
-0.0565;0.1484;9.8477;-0.0496;0.1301;9.8057;-0.0084;0.002;-0.0049;-8.0E-4;-0.002;9.0E-4;489.0;11.44;10.28;-28.89;313.74;-0.76;0.29;2.0;55.873524;-4.292516;202.93;NaN;8.39;148.69676;71.1;5 / 29;50911;2022-03-21 14:35:39:556
-0.0649;0.1149;9.8166;-0.0503;0.1301;9.8057;-0.0117;-0.002;-0.0049;-8.0E-4;-0.002;9.0E-4;489.0;11.44;10.28;-28.89;313.74;-0.76;0.29;2.0;55.873524;-4.292516;202.93;NaN;8.39;148.69676;71.1;5 / 29;51011;2022-03-21 14:35:39:656
-0.0541;0.1424;9.8345;-0.05;0.1306;9.8057;-0.0072;0.0047;-9.0E-4;-8.0E-4;-0.002;6.0E-4;458.0;11.36;10.44;-28.82;313.74;-0.76;0.29;2.0;55.873524;-4.292516;202.93;NaN;8.39;148.69676;71.1;5 / 29;51111;2022-03-21 14:35:39:756
-0.0482;0.1484;9.8441;-0.05;0.1306;9.8057;-0.0072;0.0047;-9.0E-4;-0.0014;-0.002;9.0E-4;458.0;11.36;10.44;-28.82;313.74;-0.76;0.29;2.0;55.873524;-4.292516;202.93;NaN;8.39;148.69676;71.1;5 / 29;51211;2022-03-21 14:35:39:856
-0.0661;0.1208;9.8166;-0.0494;0.1311;9.8057;-0.0054;0.0106;0.0056;-0.0011;-0.0017;8.0E-4;458.0;11.42;10.29;-28.56;313.74;-0.76;0.29;2.0;55.873524;-4.292516;202.93;NaN;8.39;148.69676;71.1;5 / 29;51311;2022-03-21 14:35:39:956
-0.0541;0.1496;9.8405;-0.0494;0.1309;9.8057;-0.0078;0.0055;0.0071;-0.0014;-0.002;9.0E-4;458.0;11.42;10.29;-28.56;313.74;-0.76;0.29;2.0;55.873524;-4.292516;202.93;NaN;8.39;148.69676;71.1;5 / 29;51411;2022-03-21 14:35:40:056
-0.0649;0.1328;9.8273;-0.0495;0.1303;9.8057;-0.0109;0.0034;-0.0024;-0.0014;-0.002;9.0E-4;458.0;11.55;10.28;-28.28;311.18;-0.77;0.29;2.0;55.873524;-4.292516;202.93;NaN;8.39;148.69676;71.1;5 / 29;51511;2022-03-21 14:35:40:156
-0.0625;0.1292;9.8333;-0.0491;0.1305;9.8057;-0.0093;0.006;-0.0031;-8.0E-4;-0.0018;9.0E-4;458.0;11.55;10.28;-28.28;311.18;-0.77;0.29;2.0;55.873524;-4.292516;202.93;NaN;8.39;148.69676;71.1;5 / 29;51612;2022-03-21 14:35:40:257
-0.0494;0.1519;9.8536;-0.0484;0.1311;9.8057;-0.0132;0.0034;0.0052;-0.0015;-0.0043;5.0E-4;458.0;11.57;10.37;-28.48;311.17;-0.76;0.29;2.0;55.873524;-4.292516;202.93;NaN;8.39;148.69676;71.1;5 / 29;51711;2022-03-21 14:35:40:356
-0.0386;0.1196;9.8357;-0.0407;0.13;9.8057;-0.0125;0.0085;0.0;-0.0015;-0.0043;5.0E-4;458.0;11.57;10.37;-28.48;311.17;-0.76;0.29;2.0;55.873524;-4.292516;202.93;NaN;8.39;148.69676;71.1;5 / 29;51811;2022-03-21 14:35:40:456
-0.0386;0.128;9.8285;-0.0286;0.1265;9.8058;-0.0079;0.0052;0.0056;-0.0049;-0.0189;-6.0E-4;458.0;11.49;10.54;-28.39;316.25;-0.76;0.24;2.0;55.873524;-4.292516;202.93;NaN;8.39;148.69676;71.1;5 / 29;51911;2022-03-21 14:35:40:556
-0.029;0.1496;9.8357;-0.0286;0.1265;9.8058;-0.0079;0.0052;0.0056;-0.0024;-0.0072;-0.0012;458.0;11.49;10.54;-28.39;316.25;-0.76;0.24;2.0;55.873524;-4.292516;202.93;NaN;8.39;148.69676;71.1;5 / 29;52012;2022-03-21 14:35:40:657
-0.0302;0.1184;9.8453;-0.0237;0.1245;9.8058;-0.0076;0.0032;-0.0021;-0.0031;-0.005;-0.002;458.0;11.36;10.24;-28.44;313.5;-0.74;0.17;2.0;55.873524;-4.292516;202.93;NaN;8.39;148.69676;71.1;5 / 29;52111;2022-03-21 14:35:40:756
-0.0338;0.1328;9.8477;-0.0219;0.122;9.8059;-0.0098;-0.005;0.0031;0.006;0.0186;-0.033;458.0;11.36;10.24;-28.44;313.5;-0.74;0.17;2.0;55.873524;-4.292516;202.93;NaN;8.39;148.69676;71.1;5 / 29;52211;2022-03-21 14:35:40:856
-0.0326;0.1484;9.8548;-0.0391;0.1283;9.8057;0.0963;0.0405;0.0115;0.006;0.0186;-0.033;458.0;11.06;10.05;-28.28;313.41;-0.71;0.13;2.0;55.873524;-4.292516;202.93;NaN;8.39;148.69676;71.1;5 / 29;52311;2022-03-21 14:35:40:956
-0.0434;0.1292;9.8225;-0.0409;0.1293;9.8057;-0.0059;0.006;0.0014;-5.0E-4;-8.0E-4;0.0011;458.0;11.06;10.05;-28.28;313.41;-0.71;0.13;2.0;55.873524;-4.292516;202.93;NaN;8.39;148.69676;71.1;5 / 29;52412;2022-03-21 14:35:41:057
-0.0398;0.1292;9.8297;-0.0415;0.1296;9.8057;-0.0098;0.0053;0.0055;-8.0E-4;-0.0015;5.0E-4;458.0;10.99;10.31;-28.67;313.66;-0.76;0.24;2.0;55.873524;-4.292516;202.93;NaN;8.39;148.69676;71.1;5 / 29;52511;2022-03-21 14:35:41:156
-0.0374;0.1567;9.8465;-0.0422;0.1289;9.8057;-0.011;0.0;-0.0063;-0.0012;-0.002;9.0E-4;458.0;10.99;10.31;-28.67;313.66;-0.76;0.24;2.0;55.873524;-4.292516;202.93;NaN;8.39;148.69676;71.1;5 / 29;52611;2022-03-21 14:35:41:256
-0.0505;0.1172;9.8213;-0.0422;0.1289;9.8057;-0.011;0.0;-0.0063;-0.0012;-0.002;9.0E-4;458.0;11.19;10.39;-28.74;313.67;-0.75;0.25;2.0;55.873524;-4.292516;202.93;NaN;8.39;148.69676;71.1;5 / 29;52711;2022-03-21 14:35:41:356
-0.0529;0.1196;9.8237;-0.0416;0.1293;9.8057;-0.0061;8.0E-4;-0.0012;-9.0E-4;-0.0014;3.0E-4;458.0;11.19;10.39;-28.74;313.67;-0.75;0.25;2.0;55.873524;-4.292516;202.93;NaN;8.39;148.69676;71.1;5 / 29;52811;2022-03-21 14:35:41:456
-0.0529;0.1519;9.8369;-0.0408;0.1294;9.8057;-0.0041;7.0E-4;-4.0E-4;-0.0011;-0.0018;6.0E-4;458.0;11.66;10.52;-28.8;313.78;-0.76;0.24;2.0;55.873524;-4.292516;202.93;NaN;8.39;148.69676;71.1;5 / 29;52911;2022-03-21 14:35:41:556
-0.0589;0.128;9.8297;-0.0405;0.1296;9.8057;-0.0068;0.0113;0.002;-0.0011;-0.0018;6.0E-4;458.0;11.66;10.52;-28.8;313.78;-0.76;0.24;2.0;55.873524;-4.292516;202.93;NaN;8.39;148.69676;71.1;5 / 29;53011;2022-03-21 14:35:41:656
-0.0565;0.1292;9.8285;-0.0407;0.1289;9.8057;-0.0097;0.004;0.0059;-9.0E-4;-0.0018;8.0E-4;458.0;11.53;10.22;-28.93;311.15;-0.76;0.24;2.0;55.873524;-4.292516;202.93;NaN;8.39;148.69676;71.1;5 / 29;53112;2022-03-21 14:35:41:757
-0.0434;0.1352;9.8393;-0.0408;0.1283;9.8057;-0.0061;0.0017;3.0E-4;-0.0014;-0.0015;6.0E-4;458.0;11.53;10.22;-28.93;311.15;-0.76;0.24;2.0;55.873524;-4.292516;202.93;NaN;8.39;148.69676;71.1;5 / 29;53212;2022-03-21 14:35:41:857
-0.0529;0.1196;9.8189;-0.0412;0.1281;9.8057;-0.0108;0.0;-0.0053;-8.0E-4;-0.0014;6.0E-4;458.0;11.49;10.37;-28.44;313.61;-0.75;0.24;2.0;55.873524;-4.292516;202.93;NaN;8.39;148.69676;71.1;5 / 29;53311;2022-03-21 14:35:41:956
-0.0482;0.1364;9.8285;-0.0411;0.1284;9.8057;-0.0066;0.0077;0.0;-8.0E-4;-0.0014;6.0E-4;458.0;11.49;10.37;-28.44;313.61;-0.75;0.24;2.0;55.873524;-4.292516;202.93;NaN;8.39;148.69676;71.1;5 / 29;53411;2022-03-21 14:35:42:056
-0.0398;0.1507;9.8393;-0.0411;0.1284;9.8057;-0.0066;0.0077;0.0;-0.0011;-0.002;8.0E-4;458.0;11.44;10.54;-28.67;316.29;-0.75;0.24;2.0;55.873524;-4.292516;202.93;NaN;8.39;148.69676;71.1;5 / 29;53512;2022-03-21 14:35:42:157
-0.0529;0.134;9.8285;-0.0399;0.1294;9.8057;-9.0E-4;0.009;7.0E-4;-0.0014;-0.0023;6.0E-4;458.0;11.44;10.54;-28.67;316.29;-0.75;0.24;2.0;55.873524;-4.292516;202.93;NaN;8.39;148.69676;71.1;5 / 29;53612;2022-03-21 14:35:42:257
