sep=;
ACCELEROMETER X (m/s²);ACCELEROMETER Y (m/s²);ACCELEROMETER Z (m/s²);GRAVITY X (m/s²);GRAVITY Y (m/s²);GRAVITY Z (m/s²);LINEAR ACCELERATION X (m/s²);LINEAR ACCELERATION Y (m/s²);LINEAR ACCELERATION Z (m/s²);GYROSCOPE X (rad/s);GYROSCOPE Y (rad/s);GYROSCOPE Z (rad/s);LIGHT (lux);MAGNETIC FIELD X (μT);MAGNETIC FIELD Y (μT);MAGNETIC FIELD Z (μT);ORIENTATION Z (azimuth °);ORIENTATION X (pitch °);ORIENTATION Y (roll °);PROXIMITY (i);LOCATION Latitude : ;LOCATION Longitude : ;LOCATION Altitude ( m);LOCATION Altitude-google ( m);LOCATION Speed ( Kmh);LOCATION Accuracy ( m);LOCATION ORIENTATION (°);Satellites in range;Time since start in ms ;YYYY-MO-DD HH-MI-SS_SSS
1.3582;2.5941;6.0039;0.4945;1.0053;9.7424;0.4826;1.0038;-1.3767;-0.1558;0.1785;-0.1432;493.0;14.01;4.76;-39.36;299.73;-7.24;-3.73;2.0;55.87352;-4.292727;333.87;NaN;;53.64516;;0 / 20;37;2022-03-22 10:34:32:031
3.853;-0.189;12.1627;2.7713;0.4807;9.3946;-2.0822;0.4839;0.0552;-0.9665;-2.0379;-1.7059;493.0;14.33;5.85;-39.62;301.97;-5.88;-2.91;2.0;55.87352;-4.292727;333.87;NaN;;53.64516;;0 / 20;136;2022-03-22 10:34:32:130
7.5075;1.9211;10.2114;4.7107;1.1359;8.5258;1.59;-0.2233;3.4988;0.5488;-0.8813;0.0244;433.0;12.39;1.28;-33.49;276.52;-2.81;-16.44;2.0;55.87352;-4.292727;333.87;NaN;;53.64516;;0 / 20;235;2022-03-22 10:34:32:229
4.1883;-0.7014;8.0641;4.7107;1.1359;8.5258;1.59;-0.2233;3.4988;0.2715;-0.5837;0.104;433.0;12.39;1.28;-33.49;276.52;-2.81;-16.44;2.0;55.87352;-4.292727;333.87;NaN;;53.64516;;0 / 20;336;2022-03-22 10:34:32:330
4.9543;1.6161;7.5302;5.1256;2.0948;8.0938;-0.4549;-2.019;0.5022;0.2715;-0.5837;0.104;433.0;1.76;0.98;-36.34;289.08;-12.33;-32.35;2.0;55.87352;-4.292727;333.87;NaN;;53.64516;;0 / 20;435;2022-03-22 10:34:32:429
2.9276;0.5088;9.9123;5.0939;1.9507;8.1497;-0.0041;-0.3365;-0.1738;-1.1959;1.8396;0.0128;460.0;1.76;0.98;-36.34;289.08;-12.33;-32.35;2.0;55.87352;-4.292727;333.87;NaN;;53.64516;;0 / 20;535;2022-03-22 10:34:32:529
-0.856;-1.9968;8.5044;2.2818;0.2475;9.5343;0.2972;-0.0651;0.376;-1.7826;2.3858;0.5357;460.0;-5.23;1.46;-38.01;296.23;-1.45;-13.46;2.0;55.87352;-4.292727;333.87;NaN;;53.64516;;0 / 20;635;2022-03-22 10:34:32:629
0.4223;-1.4091;10.9047;0.4834;-1.9929;9.5898;0.3266;-0.0862;0.4181;0.875;0.2405;0.0741;556.0;-5.23;1.46;-38.01;296.23;-1.45;-13.46;2.0;55.87352;-4.292727;333.87;NaN;;53.64516;;0 / 20;735;2022-03-22 10:34:32:729
-0.2683;-1.0175;9.9709;-0.2435;-1.2765;9.7202;0.4553;-0.0877;-0.2497;0.875;0.2405;0.0741;556.0;1.26;4.93;-34.91;231.48;11.73;-2.89;2.0;55.87352;-4.292727;333.87;NaN;;53.64516;;0 / 20;835;2022-03-22 10:34:32:829
-0.3392;-0.6272;9.0311;-1.1803;-0.7677;9.705;-0.1194;-0.3538;-0.0125;0.5635;0.8167;0.1355;556.0;1.26;4.93;-34.91;231.48;11.73;-2.89;2.0;55.87352;-4.292727;333.87;NaN;;53.64516;;0 / 20;935;2022-03-22 10:34:32:929
-0.2025;-2.1523;9.5734;-1.1803;-0.7677;9.705;-0.1194;-0.3538;-0.0125;0.2049;-0.3176;0.0476;556.0;13.52;10.39;-31.61;306.22;4.49;6.93;2.0;55.87352;-4.292727;333.87;NaN;;53.64516;;0 / 20;1035;2022-03-22 10:34:33:029
-0.7436;-1.5323;9.4968;-1.0863;-0.5926;9.7283;0.4818;-0.8647;-0.315;-0.1177;-1.0255;0.2912;681.0;13.52;10.39;-31.61;306.22;4.49;6.93;2.0;55.87352;-4.292727;333.87;NaN;;53.64516;;0 / 20;1136;2022-03-22 10:34:33:130
-0.46;-0.6703;9.4573;-0.5294;-0.8602;9.7545;-0.271;-0.5178;0.118;-0.1177;-1.0255;0.2912;681.0;19.29;12.11;-30.26;298.03;5.03;3.11;2.0;55.87352;-4.292727;333.87;NaN;;53.64516;;0 / 20;1235;2022-03-22 10:34:33:229
-0.4768;-0.7337;10.5431;-0.4647;-0.9629;9.7482;0.0697;0.221;-0.1836;-0.0722;0.1779;0.1504;681.0;19.29;12.11;-30.26;298.03;5.03;3.11;2.0;55.87352;-4.292727;333.87;NaN;;53.64516;;0 / 20;1335;2022-03-22 10:34:33:329
-0.97;-1.1503;10.13;-0.649;-0.9295;9.7409;-0.4288;-0.5696;0.1429;-0.188;0.2376;-0.2315;680.0;20.68;11.48;-30.36;292.83;5.44;3.81;2.0;55.87352;-4.292727;333.87;NaN;;53.64516;;0 / 20;1435;2022-03-22 10:34:33:429
-0.2862;-1.0499;9.1101;-0.3579;-0.9593;9.7531;-0.2865;-0.2781;0.0535;0.0035;-0.4377;0.0255;680.0;20.21;11.76;-30.45;292.83;5.44;3.81;2.0;55.87352;-4.292727;333.87;NaN;;53.64516;;0 / 20;1535;2022-03-22 10:34:33:529
-0.3284;-0.8249;8.9641;-0.131;-0.9006;9.7643;0.1657;0.1271;-0.4381;0.0035;-0.4377;0.0255;680.0;20.21;11.76;-30.45;292.83;5.44;3.81;2.0;55.87352;-4.292727;333.87;NaN;;53.64516;;0 / 20;1635;2022-03-22 10:34:33:629
0.3147;0.3508;8.307;0.4593;-0.7343;9.7683;-0.6376;0.3996;-1.8442;0.1229;-0.3008;0.0638;557.0;19.26;11.98;-31.13;296.04;5.27;0.77;2.0;55.87352;-4.292727;333.87;NaN;;53.64516;;0 / 20;1736;2022-03-22 10:34:33:730
4.3487;0.5794;9.4286;0.4593;-0.7343;9.7683;-0.6376;0.3996;-1.8442;1.5329;-3.6492;-0.664;557.0;16.78;10.97;-32.08;295.04;4.29;-2.69;2.0;55.87352;-4.292727;333.87;NaN;;53.64516;;0 / 20;1835;2022-03-22 10:34:33:829
6.1765;0.516;10.4761;3.9053;0.7551;8.9637;-0.5023;-0.1467;1.4426;0.2228;0.2479;-1.6965;447.0;16.78;10.97;-32.08;295.04;4.29;-2.69;2.0;55.87352;-4.292727;333.87;NaN;;53.64516;;0 / 20;1936;2022-03-22 10:34:33:930
5.8352;2.0686;8.9533;4.2572;1.6436;8.6802;1.7548;-0.6093;1.5396;0.2228;0.2479;-1.6965;447.0;5.63;5.36;-34.09;295.25;-9.65;-26.13;2.0;55.87352;-4.292727;333.87;NaN;;53.64516;;0 / 20;2035;2022-03-22 10:34:34:029
2.5089;1.2245;9.4585;3.4163;1.6859;9.0364;1.0529;-1.5854;-0.8831;-0.2573;0.4595;-0.0536;475.0;5.63;5.36;-34.09;295.25;-9.65;-26.13;2.0;55.87352;-4.292727;333.87;NaN;;53.64516;;0 / 20;2136;2022-03-22 10:34:34:130
2.1269;0.9015;9.5997;2.3855;0.7424;9.4831;0.4581;0.2059;-0.6048;-1.5551;1.3078;-0.0461;475.0;-2.27;0.86;-35.91;298.25;-4.34;-14.12;2.0;55.87352;-4.292727;333.87;NaN;;53.64516;;0 / 20;2236;2022-03-22 10:34:34:230
2.4811;0.2596;10.6878;1.4358;-0.2216;9.6984;0.4727;0.0344;0.9811;0.2622;-0.2439;0.5096;475.0;-2.27;0.86;-35.91;298.25;-4.34;-14.12;2.0;55.87352;-4.292727;333.87;NaN;;53.64516;;0 / 20;2336;2022-03-22 10:34:34:330
2.1508;-0.0562;8.7153;1.0465;-0.0564;9.7505;0.0711;-0.3243;-0.73;0.2622;-0.2439;0.5096;530.0;-1.99;0.58;-35.74;273.27;1.29;-8.42;2.0;55.87352;-4.292727;333.87;NaN;;53.64516;;0 / 20;2436;2022-03-22 10:34:34:430
1.0424;0.0574;10.2042;0.2025;-0.7474;9.776;0.5109;0.505;0.4884;-0.7521;0.7883;0.029;530.0;-1.99;0.58;-35.74;273.27;1.29;-8.42;2.0;55.87352;-4.292727;333.87;NaN;;53.64516;;0 / 20;2536;2022-03-22 10:34:34:530
0.4307;-0.9398;8.2436;0.2025;-0.7474;9.776;0.5109;0.505;0.4884;0.9436;-0.6718;0.182;530.0;4.58;3.96;-34.26;283.85;4.37;-1.19;2.0;55.87352;-4.292727;333.87;NaN;;53.64516;;0 / 20;2636;2022-03-22 10:34:34:630
0.658;0.7301;9.7914;0.6076;0.2216;9.7853;-0.6873;-0.4213;1.3516;-0.067;0.1697;0.1002;530.0;4.58;3.96;-34.26;283.85;4.37;-1.19;2.0;55.87352;-4.292727;333.87;NaN;;53.64516;;0 / 20;2736;2022-03-22 10:34:34:730
0.8677;0.6224;9.8429;0.5336;0.4989;9.7794;-0.0566;-0.0934;0.1974;-0.067;0.1697;0.1002;530.0;7.67;3.58;-34.39;300.08;-2.92;-3.12;2.0;55.87352;-4.292727;333.87;NaN;;53.64516;;0 / 20;2836;2022-03-22 10:34:34:830
0.1301;0.425;9.9326;0.2631;0.3722;9.7961;0.1341;0.1561;-0.0563;-0.3045;0.2827;-0.1768;530.0;7.67;3.58;-34.39;300.08;-2.92;-3.12;2.0;55.87352;-4.292727;333.87;NaN;;53.64516;;0 / 20;2936;2022-03-22 10:34:34:930
-0.2551;0.2189;13.0113;0.0822;0.0161;9.8063;0.0644;-0.0133;-0.8045;-0.2543;0.1784;-0.0405;614.0;9.58;2.57;-34.26;286.55;-0.09;-0.48;2.0;55.87352;-4.292727;333.87;NaN;;53.64516;;0 / 20;3036;2022-03-22 10:34:35:030
-0.1487;0.1914;9.4262;-0.1317;0.1841;9.804;-0.135;-0.0144;-0.4576;0.0206;-0.286;0.0525;614.0;9.58;2.57;-34.26;286.55;-0.09;-0.48;2.0;55.87352;-4.292727;333.87;NaN;;53.64516;;0 / 20;3135;2022-03-22 10:34:35:129
-0.0529;0.1651;9.632;0.0075;0.1927;9.8048;-0.0178;-0.0262;0.0372;0.0206;-0.286;0.0525;614.0;10.54;1.52;-34.54;284.18;-1.08;0.77;2.0;55.87352;-4.292727;333.87;NaN;;53.64516;;0 / 20;3235;2022-03-22 10:34:35:229
-0.0099;0.1472;9.8249;0.0075;0.1927;9.8048;-0.0178;-0.0262;0.0372;-0.0018;-0.0023;2.0E-4;614.0;10.54;1.52;-34.54;284.18;-1.08;0.77;2.0;55.87352;-4.292727;333.87;NaN;;53.64516;;0 / 20;3336;2022-03-22 10:34:35:330
-0.0182;0.1771;9.8369;0.0085;0.1899;9.8048;-0.0271;-0.0158;0.0145;-0.0017;-0.0018;3.0E-4;614.0;11.42;1.52;-34.41;283.55;-1.11;-0.05;2.0;55.87352;-4.292727;333.87;NaN;;53.64516;;0 / 20;3435;2022-03-22 10:34:35:429
-0.0182;0.1771;9.8369;0.0096;0.1875;9.8049;-0.0279;-0.0163;-0.0032;-0.0012;-0.0015;8.0E-4;614.0;11.42;1.52;-34.41;283.55;-1.11;-0.05;2.0;55.87352;-4.292727;333.87;NaN;;53.64516;;0 / 20;3535;2022-03-22 10:34:35:529
-0.0075;0.1627;9.8154;0.005;0.1831;9.8049;-0.0236;-0.0083;0.0049;-0.0012;-0.0015;8.0E-4;657.0;11.08;1.13;-34.5;278.44;-1.07;-0.03;2.0;55.87352;-4.292727;333.87;NaN;;53.64516;;0 / 20;3635;2022-03-22 10:34:35:629
-0.017;0.2022;9.8608;0.0014;0.1784;9.805;-0.0217;-0.0172;-0.0064;-2.0E-4;-9.0E-4;3.0E-4;657.0;11.08;1.13;-34.5;278.44;-1.07;-0.03;2.0;55.87352;-4.292727;333.87;NaN;;53.64516;;0 / 20;3736;2022-03-22 10:34:35:730
-0.0039;0.1783;9.8142;-0.0017;0.1788;9.805;-0.0149;-0.0096;0.0044;-2.0E-4;-0.0017;6.0E-4;657.0;10.88;1.11;-34.56;278.47;-1.04;0.01;2.0;55.87352;-4.292727;333.87;NaN;;53.64516;;0 / 20;3835;2022-03-22 10:34:35:829
-0.0039;0.1783;9.8142;-0.0043;0.1799;9.805;-0.0168;0.0085;0.0012;0.0014;-8.0E-4;5.0E-4;657.0;10.88;1.11;-34.56;278.47;-1.04;0.01;2.0;55.87352;-4.292727;333.87;NaN;;53.64516;;0 / 20;3936;2022-03-22 10:34:35:930
-0.0326;0.1998;9.8249;-0.0067;0.1797;9.805;-0.0167;-1.0E-4;0.0046;0.0014;-8.0E-4;5.0E-4;657.0;10.39;1.33;-34.67;279.34;-1.05;0.02;2.0;55.87352;-4.292727;333.87;NaN;;53.64516;;0 / 20;4035;2022-03-22 10:34:36:029
-0.0266;0.1699;9.8142;-0.0067;0.1797;9.805;-0.0167;-1.0E-4;0.0046;-0.0021;-0.0017;5.0E-4;657.0;10.39;1.33;-34.67;279.34;-1.05;0.02;2.0;55.87352;-4.292727;333.87;NaN;;53.64516;;0 / 20;4137;2022-03-22 10:34:36:131
-0.0111;0.1747;9.8345;-0.0084;0.1778;9.805;-0.0086;-0.0038;-0.0023;-0.0015;-0.0015;3.0E-4;657.0;10.52;1.16;-34.69;278.48;-1.04;0.05;2.0;55.87352;-4.292727;333.87;NaN;;53.64516;;0 / 20;4235;2022-03-22 10:34:36:229
-0.0111;0.1747;9.8345;-0.0087;0.1755;9.8051;-0.0095;1.0E-4;-0.0023;-0.0023;-0.0018;8.0E-4;657.0;10.52;1.16;-34.69;278.48;-1.04;0.05;2.0;55.87352;-4.292727;333.87;NaN;;53.64516;;0 / 20;4336;2022-03-22 10:34:36:330
-0.0278;0.1842;9.8249;-0.009;0.1756;9.8051;-0.0097;0.0031;1.0E-4;-0.0023;-0.0018;8.0E-4;657.0;10.59;1.31;-34.61;278.44;-1.03;0.05;2.0;55.87352;-4.292727;333.87;NaN;;53.64516;;0 / 20;4436;2022-03-22 10:34:36:430
-0.0194;0.1878;9.8333;-0.0091;0.1742;9.8051;-0.0075;0.0014;-0.002;-0.0014;-0.0017;5.0E-4;657.0;10.59;1.31;-34.61;278.44;-1.03;0.05;2.0;55.87352;-4.292727;333.87;NaN;;53.64516;;0 / 20;4535;2022-03-22 10:34:36:529
-0.0194;0.1938;9.8321;-0.0096;0.1744;9.8051;-0.0083;0.0079;0.0074;-0.0031;-0.0017;0.0011;657.0;10.69;1.24;-34.18;278.33;-1.02;0.06;2.0;55.87352;-4.292727;333.87;NaN;;53.64516;;0 / 20;4635;2022-03-22 10:34:36:629
-0.0218;0.1555;9.807;-0.0095;0.1723;9.8051;-0.0067;0.0021;-0.0069;-0.0011;-0.0015;8.0E-4;657.0;10.69;1.24;-34.18;278.33;-1.02;0.06;2.0;55.87352;-4.292727;333.87;NaN;;53.64516;;0 / 20;4737;2022-03-22 10:34:36:731
-0.0266;0.1807;9.8393;-0.0112;0.1719;9.8051;-0.0134;0.0097;0.0068;-0.0011;-0.0015;8.0E-4;657.0;11.14;1.48;-33.92;278.29;-1.01;0.06;2.0;55.87352;-4.292727;333.87;NaN;;53.64516;;0 / 20;4835;2022-03-22 10:34:36:829
-0.0087;0.1699;9.8261;-0.0112;0.1719;9.8051;-0.0134;0.0097;0.0068;-5.0E-4;-9.0E-4;3.0E-4;657.0;11.14;1.48;-33.92;278.29;-1.01;0.06;2.0;55.87352;-4.292727;333.87;NaN;;53.64516;;0 / 20;4935;2022-03-22 10:34:36:929
-0.0254;0.1735;9.8225;-0.0114;0.1726;9.8051;-0.0053;0.0034;-0.0015;-0.0011;-0.0012;5.0E-4;657.0;11.34;1.74;-33.77;283.34;-1.01;0.07;2.0;55.87352;-4.292727;333.87;NaN;;53.64516;;0 / 20;5036;2022-03-22 10:34:37:030
-0.029;0.213;9.8297;-0.0119;0.1716;9.8051;-0.0091;0.002;-0.0023;-9.0E-4;-8.0E-4;5.0E-4;657.0;11.34;1.74;-33.77;283.34;-1.01;0.07;2.0;55.87352;-4.292727;333.87;NaN;;53.64516;;0 / 20;5135;2022-03-22 10:34:37:129
-0.0075;0.1723;9.8154;-0.013;0.1729;9.8051;-0.0084;0.0091;0.0031;-9.0E-4;-8.0E-4;5.0E-4;657.0;11.44;1.61;-33.73;283.35;-1.01;0.08;2.0;55.87352;-4.292727;333.87;NaN;;53.64516;;0 / 20;5236;2022-03-22 10:34:37:230
-0.023;0.1938;9.8237;-0.0124;0.1723;9.8051;-0.0058;0.0033;-0.0026;-0.0015;-0.0015;8.0E-4;657.0;11.44;1.61;-33.73;283.35;-1.01;0.08;2.0;55.87352;-4.292727;333.87;NaN;;53.64516;;0 / 20;5335;2022-03-22 10:34:37:329
-0.029;0.1986;9.8285;-0.0148;0.1753;9.8051;-0.0066;0.0087;8.0E-4;-5.0E-4;-6.0E-4;9.0E-4;657.0;11.31;1.46;-33.98;278.3;-1.01;0.07;2.0;55.87352;-4.292727;333.87;NaN;;53.64516;;0 / 20;5436;2022-03-22 10:34:37:430
-0.0147;0.1819;9.8189;-0.0142;0.1739;9.8051;-0.0032;-0.003;-0.0043;-0.0012;-0.0014;0.0011;657.0;11.31;1.46;-33.98;278.3;-1.01;0.07;2.0;55.87352;-4.292727;333.87;NaN;;53.64516;;0 / 20;5536;2022-03-22 10:34:37:530
-0.0123;0.1591;9.8082;-0.0142;0.1739;9.8051;-0.0032;-0.003;-0.0043;-0.0012;-0.0014;0.0011;657.0;11.31;1.43;-34.26;278.33;-1.02;0.08;2.0;55.87352;-4.292727;333.87;NaN;;53.64516;;0 / 20;5635;2022-03-22 10:34:37:629
-0.0302;0.1878;9.8297;-0.0139;0.1745;9.8051;-0.0027;0.0067;0.004;-0.0014;-0.0014;9.0E-4;657.0;11.31;1.43;-34.26;278.33;-1.02;0.08;2.0;55.87352;-4.292727;333.87;NaN;;53.64516;;0 / 20;5736;2022-03-22 10:34:37:730
-0.017;0.1914;9.8297;-0.0146;0.1745;9.8051;-0.012;0.0051;-0.0018;-0.0012;-0.0014;9.0E-4;657.0;11.27;1.46;-34.09;278.34;-1.02;0.09;2.0;55.87352;-4.292727;333.87;NaN;;53.64516;;0 / 20;5835;2022-03-22 10:34:37:829
-0.0135;0.1807;9.8213;-0.0143;0.1751;9.8051;-0.0063;0.0109;-0.0059;-8.0E-4;-0.0017;2.0E-4;657.0;11.27;1.46;-34.09;278.34;-1.02;0.09;2.0;55.87352;-4.292727;333.87;NaN;;53.64516;;0 / 20;5936;2022-03-22 10:34:37:930
-0.0194;0.1926;9.8285;-0.0134;0.175;9.8051;-0.0052;0.0038;0.0029;-8.0E-4;-0.0017;2.0E-4;657.0;11.12;1.33;-34.18;278.35;-1.02;0.08;2.0;55.87352;-4.292727;333.87;NaN;;53.64516;;0 / 20;6035;2022-03-22 10:34:38:029
-0.0218;0.1759;9.8166;-0.0131;0.1745;9.8051;-0.0047;0.0036;-0.0042;-0.0015;-0.0015;5.0E-4;657.0;11.12;1.33;-34.18;278.35;-1.02;0.08;2.0;55.87352;-4.292727;333.87;NaN;;53.64516;;0 / 20;6135;2022-03-22 10:34:38:129
-0.017;0.1627;9.8249;-0.0131;0.1742;9.8051;-0.0027;-6.0E-4;0.0013;-6.0E-4;-0.0015;6.0E-4;657.0;10.86;1.24;-34.29;278.34;-1.02;0.08;2.0;55.87352;-4.292727;333.87;NaN;;53.64516;;0 / 20;6235;2022-03-22 10:34:38:229
-0.017;0.1795;9.8285;-0.0132;0.1745;9.8051;-0.007;0.0091;8.0E-4;-0.0018;-0.0012;3.0E-4;657.0;10.86;1.24;-34.29;278.34;-1.02;0.08;2.0;55.87352;-4.292727;333.87;NaN;;53.64516;;0 / 20;6335;2022-03-22 10:34:38:329
-0.0147;0.1854;9.8333;-0.0132;0.1745;9.8051;-0.007;0.0091;8.0E-4;-0.0018;-0.0012;3.0E-4;657.0;10.95;1.43;-34.41;278.34;-1.02;0.08;2.0;55.87352;-4.292727;333.87;NaN;;53.64516;;0 / 20;6436;2022-03-22 10:34:38:430
-0.0194;0.1759;9.8178;-0.0126;0.174;9.8051;-0.0032;0.0068;-0.0035;-8.0E-4;-3.0E-4;8.0E-4;657.0;11.18;1.44;-34.26;278.34;-1.02;0.08;2.0;55.87352;-4.292727;333.87;NaN;;53.64516;;0 / 20;6535;2022-03-22 10:34:38:529
-0.0218;0.1795;9.8285;-0.0138;0.1739;9.8051;-0.0092;0.0026;-0.0011;-8.0E-4;-3.0E-4;8.0E-4;657.0;11.18;1.44;-34.26;278.34;-1.02;0.08;2.0;55.87352;-4.292727;333.87;NaN;;53.64516;;0 / 20;6635;2022-03-22 10:34:38:629
-0.0194;0.201;9.8309;-0.0138;0.1739;9.8051;-0.0092;0.0026;-0.0011;-0.0015;-0.0012;8.0E-4;657.0;11.21;1.59;-34.16;283.37;-1.02;0.08;2.0;55.87352;-4.292727;333.87;NaN;;53.64516;;0 / 20;6736;2022-03-22 10:34:38:730
-0.0218;0.1866;9.8285;-0.0127;0.1725;9.8051;-0.0067;0.0052;0.0018;-0.0015;-0.0012;8.0E-4;657.0;11.16;1.31;-34.05;278.3;-1.01;0.07;2.0;55.87352;-4.292727;333.87;NaN;;53.64516;;0 / 20;6835;2022-03-22 10:34:38:829
-0.0266;0.1914;9.8261;-0.0125;0.173;9.8051;-0.0069;0.0062;-0.0026;-8.0E-4;-0.0011;3.0E-4;657.0;11.16;1.31;-34.05;278.3;-1.01;0.07;2.0;55.87352;-4.292727;333.87;NaN;;53.64516;;0 / 20;6935;2022-03-22 10:34:38:929
-0.0123;0.1819;9.8189;-0.0134;0.1749;9.8051;-0.0084;0.0099;-0.0037;-8.0E-4;-0.0011;3.0E-4;657.0;11.16;0.84;-34.24;278.34;-1.02;0.08;2.0;55.87352;-4.292727;333.87;NaN;;53.64516;;0 / 20;7035;2022-03-22 10:34:39:029
-0.0218;0.1842;9.8333;-0.0132;0.1742;9.8051;-0.0071;0.0059;-7.0E-4;-0.0017;-0.0017;6.0E-4;657.0;11.16;0.84;-34.24;278.34;-1.02;0.08;2.0;55.87352;-4.292727;333.87;NaN;;53.64516;;0 / 20;7136;2022-03-22 10:34:39:130
-0.0266;0.189;9.8189;-0.0132;0.1743;9.8051;-0.0094;0.0089;-0.001;-0.0017;-0.0017;6.0E-4;657.0;11.1;0.92;-34.11;278.33;-1.02;0.08;2.0;55.87352;-4.292727;333.87;NaN;;53.64516;;0 / 20;7235;2022-03-22 10:34:39:229
-0.0147;0.1771;9.8213;-0.013;0.1734;9.8051;-0.0064;0.0082;-2.0E-4;-0.0015;-0.0014;6.0E-4;657.0;11.1;0.92;-34.11;278.33;-1.02;0.08;2.0;55.87352;-4.292727;333.87;NaN;;53.64516;;0 / 20;7335;2022-03-22 10:34:39:329
-0.0147;0.1986;9.8285;-0.013;0.1734;9.8051;-0.0064;0.0082;-2.0E-4;-0.0047;-0.0029;8.0E-4;657.0;11.04;1.37;-33.94;278.32;-1.01;0.08;2.0;55.87352;-4.292727;333.87;NaN;;53.64516;;0 / 20;7435;2022-03-22 10:34:39:429
-0.0242;0.1747;9.8166;-0.0118;0.1713;9.8051;-0.0053;0.0103;-0.0051;-0.0026;-0.002;5.0E-4;657.0;11.04;1.37;-33.94;278.32;-1.01;0.08;2.0;55.87352;-4.292727;333.87;NaN;;53.64516;;0 / 20;7536;2022-03-22 10:34:39:530
-0.029;0.1723;9.8213;-0.0112;0.1694;9.8052;-0.0066;0.009;-0.0034;-0.0026;-0.002;5.0E-4;657.0;11.01;1.71;-33.92;283.28;-0.99;0.07;2.0;55.87352;-4.292727;333.87;NaN;;53.64516;;0 / 20;7635;2022-03-22 10:34:39:629
-0.0218;0.1747;9.8213;-0.012;0.1691;9.8052;-0.0122;0.0078;-0.0025;-0.0014;-0.0023;3.0E-4;657.0;11.01;1.71;-33.92;283.28;-0.99;0.07;2.0;55.87352;-4.292727;333.87;NaN;;53.64516;;0 / 20;7735;2022-03-22 10:34:39:729
-0.0218;0.1771;9.807;-0.0117;0.1683;9.8052;-0.0077;0.0022;-0.0011;-5.0E-4;-0.0014;6.0E-4;657.0;11.18;1.46;-33.84;278.22;-0.98;0.07;2.0;55.87352;-4.292727;333.87;NaN;;53.64516;;0 / 20;7836;2022-03-22 10:34:39:830
-0.0242;0.1579;9.8118;-0.0123;0.1707;9.8052;-0.0063;0.0086;0.002;-9.0E-4;-9.0E-4;5.0E-4;657.0;11.18;1.46;-33.84;278.22;-0.98;0.07;2.0;55.87352;-4.292727;333.87;NaN;;53.64516;;0 / 20;7935;2022-03-22 10:34:39:929
-0.0194;0.1866;9.8261;-0.0121;0.1706;9.8052;-0.0049;0.0055;-9.0E-4;-9.0E-4;-9.0E-4;5.0E-4;657.0;11.16;1.11;-33.82;278.27;-1.0;0.07;2.0;55.87352;-4.292727;333.87;NaN;;53.64516;;0 / 20;8036;2022-03-22 10:34:40:030
-0.0147;0.1699;9.8166;-0.0129;0.1726;9.8051;-0.0065;0.0107;-0.0053;-6.0E-4;-0.0015;3.0E-4;657.0;11.16;1.11;-33.82;278.27;-1.0;0.07;2.0;55.87352;-4.292727;333.87;NaN;;53.64516;;0 / 20;8135;2022-03-22 10:34:40:129
-0.0147;0.1723;9.8046;-0.0129;0.1726;9.8051;-0.0065;0.0107;-0.0053;-0.0014;-0.0012;6.0E-4;657.0;10.97;0.86;-34.26;278.3;-1.01;0.08;2.0;55.87352;-4.292727;333.87;NaN;;53.64516;;0 / 20;8236;2022-03-22 10:34:40:230
-0.0194;0.1842;9.8285;-0.0132;0.173;9.8051;-0.0094;0.0079;-0.0048;-3.0E-4;-0.0017;3.0E-4;657.0;11.12;0.83;-34.09;278.3;-1.01;0.08;2.0;55.87352;-4.292727;333.87;NaN;;53.64516;;0 / 20;8336;2022-03-22 10:34:40:330
-0.017;0.1771;9.8094;-0.0128;0.1742;9.8051;-0.0066;0.0115;0.0062;-3.0E-4;-0.0017;3.0E-4;657.0;11.12;0.83;-34.09;278.3;-1.01;0.08;2.0;55.87352;-4.292727;333.87;NaN;;53.64516;;0 / 20;8436;2022-03-22 10:34:40:430
-0.0147;0.1675;9.8118;-0.0129;0.174;9.8051;-0.0041;0.003;-0.0024;-0.0011;-0.0015;3.0E-4;657.0;11.21;0.83;-34.16;278.33;-1.02;0.07;2.0;55.87352;-4.292727;333.87;NaN;;53.64516;;0 / 20;8535;2022-03-22 10:34:40:529
-0.0266;0.1819;9.8142;-0.0129;0.1741;9.8051;-0.0105;0.0068;6.0E-4;-9.0E-4;-0.002;3.0E-4;657.0;11.03;1.16;-33.99;278.33;-1.02;0.08;2.0;55.87352;-4.292727;333.87;NaN;;53.64516;;0 / 20;8635;2022-03-22 10:34:40:629
-0.017;0.1819;9.8189;-0.0131;0.1742;9.8051;-0.0072;0.0051;0.0017;-9.0E-4;-0.0012;3.0E-4;657.0;11.03;1.16;-33.99;278.33;-1.02;0.08;2.0;55.87352;-4.292727;333.87;NaN;;53.64516;;0 / 20;8735;2022-03-22 10:34:40:729
-0.0242;0.1723;9.8118;-0.0126;0.1742;9.8051;-0.0076;0.0075;-9.0E-4;-9.0E-4;-0.0012;3.0E-4;657.0;11.14;1.31;-33.66;278.33;-1.02;0.08;2.0;55.87352;-4.292727;333.87;NaN;;53.64516;;0 / 20;8835;2022-03-22 10:34:40:829
-0.017;0.1866;9.8166;-0.0132;0.1748;9.8051;-0.0087;0.0093;-8.0E-4;-8.0E-4;-0.0017;6.0E-4;657.0;11.14;1.31;-33.66;278.33;-1.02;0.08;2.0;55.87352;-4.292727;333.87;NaN;;53.64516;;0 / 20;8936;2022-03-22 10:34:40:930
-0.0218;0.189;9.8213;-0.0132;0.1748;9.8051;-0.0087;0.0093;-8.0E-4;-9.0E-4;-0.0014;3.0E-4;657.0;11.34;1.37;-33.88;278.34;-1.02;0.08;2.0;55.87352;-4.292727;333.87;NaN;;53.64516;;0 / 20;9035;2022-03-22 10:34:41:029
-0.0314;0.1866;9.8118;-0.0134;0.1754;9.8051;-0.0068;0.0039;6.0E-4;-0.0015;-0.0015;3.0E-4;657.0;11.34;1.37;-33.88;278.34;-1.02;0.08;2.0;55.87352;-4.292727;333.87;NaN;;53.64516;;0 / 20;9136;2022-03-22 10:34:41:130
-0.0194;0.1866;9.8166;-0.0133;0.1752;9.8051;-0.0093;0.005;-0.0042;-0.0015;-0.0015;3.0E-4;657.0;11.42;1.05;-33.9;278.35;-1.02;0.08;2.0;55.87352;-4.292727;333.87;NaN;;53.64516;;0 / 20;9236;2022-03-22 10:34:41:230
-0.0194;0.1771;9.8189;-0.0138;0.1755;9.8051;-0.0104;0.0094;4.0E-4;-0.0018;-0.0018;3.0E-4;657.0;11.42;1.05;-33.9;278.35;-1.02;0.08;2.0;55.87352;-4.292727;333.87;NaN;;53.64516;;0 / 20;9335;2022-03-22 10:34:41:329
-0.0147;0.1866;9.8213;-0.0133;0.1756;9.8051;-0.0061;0.0053;0.0022;-8.0E-4;-0.0014;5.0E-4;657.0;11.33;0.99;-33.79;278.36;-1.03;0.08;2.0;55.87352;-4.292727;333.87;NaN;;53.64516;;0 / 20;9436;2022-03-22 10:34:41:430
-0.017;0.1819;9.8213;-0.0133;0.1754;9.8051;-0.0069;0.0047;6.0E-4;-0.002;-0.0017;9.0E-4;657.0;11.14;1.01;-33.34;278.36;-1.03;0.08;2.0;55.87352;-4.292727;333.87;NaN;;53.64516;;0 / 20;9535;2022-03-22 10:34:41:529
-0.0242;0.1747;9.807;-0.0123;0.1756;9.8051;-0.0047;0.007;-0.0019;-0.002;-0.0017;9.0E-4;657.0;11.14;1.01;-33.34;278.36;-1.03;0.08;2.0;55.87352;-4.292727;333.87;NaN;;53.64516;;0 / 20;9635;2022-03-22 10:34:41:629
-0.0266;0.1962;9.8261;-0.0123;0.1756;9.8051;-0.0047;0.007;-0.0019;-8.0E-4;-0.0014;5.0E-4;657.0;11.25;1.11;-33.24;278.26;-1.03;0.07;2.0;55.87352;-4.292727;333.87;NaN;;53.64516;;0 / 20;9735;2022-03-22 10:34:41:729
-0.0147;0.1866;9.8213;-0.0126;0.1745;9.8051;-0.0076;-0.0024;-0.0011;-0.0011;-0.0014;9.0E-4;657.0;11.25;1.01;-33.49;278.24;-1.02;0.07;2.0;55.87352;-4.292727;333.87;NaN;;53.64516;;0 / 20;9835;2022-03-22 10:34:41:829
-0.0242;0.1914;9.8213;-0.0132;0.1752;9.8051;-0.0087;0.0089;-9.0E-4;-0.0014;-0.0014;6.0E-4;657.0;11.25;1.01;-33.49;278.24;-1.02;0.07;2.0;55.87352;-4.292727;333.87;NaN;;53.64516;;0 / 20;9935;2022-03-22 10:34:41:929
-0.017;0.1819;9.8142;-0.013;0.1756;9.8051;-0.0096;0.0077;0.0021;-0.0014;-0.0014;6.0E-4;657.0;11.23;1.43;-33.9;278.36;-1.03;0.08;2.0;55.87352;-4.292727;333.87;NaN;;53.64516;;0 / 20;10035;2022-03-22 10:34:42:029
-0.0147;0.1723;9.8022;-0.0186;0.1784;9.805;-8.0E-4;-0.0015;-0.0016;0.0032;0.0055;0.0029;657.0;11.23;1.43;-33.9;278.36;-1.03;0.08;2.0;55.87352;-4.292727;333.87;NaN;;53.64516;;0 / 20;10135;2022-03-22 10:34:42:129
-0.0123;0.1723;9.8166;-0.0254;0.1838;9.8049;0.0092;-0.0037;-0.002;0.0038;0.0052;0.0024;657.0;10.88;1.41;-34.65;278.63;-1.07;0.15;2.0;55.87352;-4.292727;333.87;NaN;;53.64516;;0 / 20;10236;2022-03-22 10:34:42:230
-0.0194;0.1771;9.8189;-0.0313;0.187;9.8048;0.008;-0.0037;-0.002;0.0052;0.0089;0.0029;657.0;10.88;1.41;-34.65;278.63;-1.07;0.15;2.0;55.87352;-4.292727;333.87;NaN;;53.64516;;0 / 20;10335;2022-03-22 10:34:42:329
-0.0147;0.1723;9.8213;-0.0346;0.1892;9.8048;0.0144;-0.0083;0.0025;0.0052;0.0089;0.0029;657.0;10.71;1.76;-34.65;283.77;-1.09;0.18;2.0;55.87352;-4.292727;333.87;NaN;;53.64516;;0 / 20;10435;2022-03-22 10:34:42:429
-0.0242;0.1819;9.8237;-0.0346;0.1892;9.8048;0.0144;-0.0083;0.0025;-0.0011;-0.0014;3.0E-4;657.0;10.71;1.76;-34.65;283.77;-1.09;0.18;2.0;55.87352;-4.292727;333.87;NaN;;53.64516;;0 / 20;10536;2022-03-22 10:34:42:530
-0.017;0.1866;9.8261;-0.0299;0.186;9.8048;0.0081;-0.006;0.0023;-0.0014;-0.0014;6.0E-4;657.0;11.06;1.39;-34.03;278.59;-1.09;0.17;2.0;55.87352;-4.292727;333.87;NaN;;53.64516;;0 / 20;10635;2022-03-22 10:34:42:629
-0.0123;0.1842;9.8189;-0.0269;0.1838;9.8049;0.0043;-0.0014;0.0018;-0.0015;-0.0018;3.0E-4;657.0;11.06;1.39;-34.03;278.59;-1.09;0.17;2.0;55.87352;-4.292727;333.87;NaN;;53.64516;;0 / 20;10735;2022-03-22 10:34:42:729
-0.0218;0.1723;9.8213;-0.0234;0.181;9.805;0.0064;-0.0073;-0.0018;-0.0015;-0.0018;3.0E-4;657.0;11.57;1.37;-33.82;277.78;-1.06;0.14;2.0;55.87352;-4.292727;333.87;NaN;;53.64516;;0 / 20;10836;2022-03-22 10:34:42:830
-0.0218;0.1723;9.8213;-0.0211;0.1802;9.805;0.0025;-0.0017;0.0028;-9.0E-4;-0.0021;3.0E-4;657.0;11.57;1.37;-33.82;277.78;-1.06;0.14;2.0;55.87352;-4.292727;333.87;NaN;;53.64516;;0 / 20;10935;2022-03-22 10:34:42:929
-0.0266;0.1962;9.8237;-0.0198;0.1803;9.805;4.0E-4;0.003;-0.0021;-6.0E-4;-0.0015;3.0E-4;657.0;11.34;1.09;-33.99;278.46;-1.05;0.12;2.0;55.87352;-4.292727;333.87;NaN;;53.64516;;0 / 20;11036;2022-03-22 10:34:43:030
-0.017;0.1866;9.8261;-0.0194;0.1795;9.805;-0.004;0.0022;-0.0033;5.0E-4;-0.0012;3.0E-4;657.0;11.29;1.28;-33.98;278.46;-1.05;0.12;2.0;55.87352;-4.292727;333.87;NaN;;53.64516;;0 / 20;11135;2022-03-22 10:34:43:129
-0.0242;0.1842;9.8237;-0.018;0.1799;9.805;-0.0062;1.0E-4;0.0028;5.0E-4;-0.0012;3.0E-4;657.0;11.29;1.28;-33.98;278.46;-1.05;0.12;2.0;55.87352;-4.292727;333.87;NaN;;53.64516;;0 / 20;11235;2022-03-22 10:34:43:229
-0.029;0.2058;9.8261;-0.018;0.1799;9.805;-0.0062;1.0E-4;0.0028;-0.0021;-0.0032;-2.0E-4;657.0;11.16;1.33;-33.79;278.45;-1.05;0.1;2.0;55.87352;-4.292727;333.87;NaN;;53.64516;;0 / 20;11335;2022-03-22 10:34:43:329
-0.017;0.1555;9.807;-0.0161;0.1785;9.805;-0.0049;0.0104;0.002;-8.0E-4;-0.0014;6.0E-4;657.0;11.01;1.37;-33.54;278.41;-1.04;0.09;2.0;55.87352;-4.292727;333.87;NaN;;53.64516;;0 / 20;11435;2022-03-22 10:34:43:429
-0.0218;0.1986;9.8285;-0.0162;0.1793;9.805;-0.0048;-0.0016;-0.0042;-9.0E-4;-0.002;0.0;657.0;11.29;1.35;-33.0;278.41;-1.04;0.09;2.0;55.87352;-4.292727;333.87;NaN;;53.64516;;0 / 20;11535;2022-03-22 10:34:43:529
-0.0218;0.201;9.8213;-0.0155;0.1785;9.805;-0.0047;0.0048;-1.0E-4;-9.0E-4;-0.002;0.0;657.0;11.29;1.35;-33.0;278.41;-1.04;0.09;2.0;55.87352;-4.292727;333.87;NaN;;53.64516;;0 / 20;11636;2022-03-22 10:34:43:630
-0.0218;0.1651;9.8142;-0.0165;0.179;9.805;-0.0077;-0.0029;-0.0012;-2.0E-4;-5.0E-4;0.0011;657.0;11.42;1.24;-33.17;278.32;-1.04;0.09;2.0;55.87352;-4.292727;333.87;NaN;;53.64516;;0 / 20;11736;2022-03-22 10:34:43:730
-0.0266;0.1938;9.8261;-0.016;0.1785;9.805;-0.005;0.0063;0.0017;-6.0E-4;-0.0014;6.0E-4;657.0;11.27;1.13;-33.17;278.33;-1.05;0.1;2.0;55.87352;-4.292727;333.87;NaN;;53.64516;;0 / 20;11836;2022-03-22 10:34:43:830
-0.0218;0.1842;9.8142;-0.0147;0.1783;9.805;-0.0015;-6.0E-4;-1.0E-4;-9.0E-4;-0.0017;3.0E-4;657.0;11.27;1.13;-33.17;278.33;-1.05;0.1;2.0;55.87352;-4.292727;333.87;NaN;;53.64516;;0 / 20;11935;2022-03-22 10:34:43:929
-0.0123;0.1699;9.7998;-0.0147;0.1783;9.805;-0.0015;-6.0E-4;-1.0E-4;-9.0E-4;-0.0017;3.0E-4;657.0;11.34;1.09;-33.68;278.41;-1.04;0.09;2.0;55.87352;-4.292727;333.87;NaN;;53.64516;;0 / 20;12035;2022-03-22 10:34:44:029
-0.0194;0.1651;9.807;-0.014;0.178;9.805;-0.003;0.0045;-0.0011;-3.0E-4;-0.0011;9.0E-4;657.0;11.34;1.09;-33.68;278.41;-1.04;0.09;2.0;55.87352;-4.292727;333.87;NaN;;53.64516;;0 / 20;12135;2022-03-22 10:34:44:129
-0.017;0.2058;9.8213;-0.014;0.1782;9.805;-0.0078;0.0026;-0.0037;-0.0014;-0.0014;3.0E-4;657.0;10.97;1.03;-33.58;278.4;-1.04;0.08;2.0;55.87352;-4.292727;333.87;NaN;;53.64516;;0 / 20;12235;2022-03-22 10:34:44:229
-0.0242;0.1651;9.8118;-0.0139;0.1777;9.805;-0.0103;0.0111;0.0021;-0.0021;-0.0017;3.0E-4;657.0;10.97;1.03;-33.58;278.4;-1.04;0.08;2.0;55.87352;-4.292727;333.87;NaN;;53.64516;;0 / 20;12336;2022-03-22 10:34:44:330
-0.0051;0.1866;9.8142;-0.013;0.1772;9.805;-0.004;-0.0011;-0.0032;-0.0021;-0.0017;3.0E-4;657.0;11.21;1.39;-33.39;278.29;-1.04;0.08;2.0;55.87352;-4.292727;333.87;NaN;;53.64516;;0 / 20;12435;2022-03-22 10:34:44:429
-0.0123;0.1795;9.8237;-0.014;0.1769;9.805;-0.0086;0.0016;0.0041;-0.0017;-0.0012;5.0E-4;657.0;11.21;1.39;-33.39;278.29;-1.04;0.08;2.0;55.87352;-4.292727;333.87;NaN;;53.64516;;0 / 20;12535;2022-03-22 10:34:44:529
-0.0242;0.1795;9.8261;-0.0135;0.1766;9.8051;-0.0052;0.0011;-0.0083;-0.0011;-0.002;6.0E-4;657.0;11.19;1.28;-33.53;278.38;-1.03;0.08;2.0;55.87352;-4.292727;333.87;NaN;;53.64516;;0 / 20;12635;2022-03-22 10:34:44:629
-0.0123;0.1938;9.8118;-0.014;0.1771;9.805;-0.0094;0.0037;-0.0035;-5.0E-4;-0.0017;3.0E-4;657.0;11.19;1.28;-33.53;278.38;-1.03;0.08;2.0;55.87352;-4.292727;333.87;NaN;;53.64516;;0 / 20;12736;2022-03-22 10:34:44:730
-0.017;0.1866;9.8261;-0.014;0.1771;9.805;-0.0094;0.0037;-0.0035;-5.0E-4;-0.0017;3.0E-4;657.0;11.44;1.16;-33.94;278.38;-1.03;0.08;2.0;55.87352;-4.292727;333.87;NaN;;53.64516;;0 / 20;12836;2022-03-22 10:34:44:830
-0.017;0.2082;9.8237;-0.014;0.1787;9.805;-0.0038;0.0077;0.001;-2.0E-4;-8.0E-4;5.0E-4;657.0;11.44;0.94;-34.11;278.38;-1.03;0.08;2.0;55.87352;-4.292727;333.87;NaN;;53.64516;;0 / 20;12935;2022-03-22 10:34:44:929
-0.0218;0.2225;9.8357;-0.014;0.1802;9.805;-0.0055;0.0102;0.0;-5.0E-4;-0.0014;6.0E-4;657.0;11.44;0.94;-34.11;278.38;-1.03;0.08;2.0;55.87352;-4.292727;333.87;NaN;;53.64516;;0 / 20;13035;2022-03-22 10:34:45:029
-0.017;0.189;9.8237;-0.0144;0.1799;9.805;-0.0066;0.0057;0.0049;-0.0011;-0.002;6.0E-4;657.0;11.38;1.11;-34.03;278.44;-1.05;0.08;2.0;55.87352;-4.292727;333.87;NaN;;53.64516;;0 / 20;13135;2022-03-22 10:34:45:129
-0.0147;0.1771;9.8309;-0.0142;0.1802;9.805;-0.0044;0.0047;3.0E-4;-0.0011;-0.002;6.0E-4;657.0;11.12;0.94;-33.92;278.44;-1.05;0.08;2.0;55.87352;-4.292727;333.87;NaN;;53.64516;;0 / 20;13236;2022-03-22 10:34:45:230
-0.0194;0.1842;9.8285;-0.0146;0.1798;9.805;-0.0072;0.0018;7.0E-4;-0.0017;-0.0014;3.0E-4;657.0;11.12;0.94;-33.92;278.44;-1.05;0.08;2.0;55.87352;-4.292727;333.87;NaN;;53.64516;;0 / 20;13335;2022-03-22 10:34:45:329
-0.0266;0.1651;9.8094;-0.0153;0.1805;9.805;-0.0049;0.0123;-8.0E-4;-0.0026;-0.0012;8.0E-4;657.0;10.78;0.84;-33.75;278.43;-1.05;0.09;2.0;55.87352;-4.292727;333.87;NaN;;53.64516;;0 / 20;13435;2022-03-22 10:34:45:429
-0.0051;0.1699;9.8189;-0.0151;0.1788;9.805;-0.0075;0.0029;-0.0015;-0.0017;-0.0015;5.0E-4;657.0;10.78;0.84;-33.75;278.43;-1.05;0.09;2.0;55.87352;-4.292727;333.87;NaN;;53.64516;;0 / 20;13535;2022-03-22 10:34:45:529
-0.0338;0.2106;9.8237;-0.0151;0.1788;9.805;-0.0075;0.0029;-0.0015;-0.0017;-0.0015;5.0E-4;657.0;11.01;1.03;-34.03;278.42;-1.04;0.09;2.0;55.87352;-4.292727;333.87;NaN;;53.64516;;0 / 20;13635;2022-03-22 10:34:45:629
-0.0194;0.146;9.807;-0.017;0.1793;9.805;0.0016;0.0071;-0.003;0.0034;0.005;0.0021;657.0;11.01;1.03;-34.03;278.42;-1.04;0.09;2.0;55.87352;-4.292727;333.87;NaN;;53.64516;;0 / 20;13735;2022-03-22 10:34:45:729
0.0069;0.1651;9.8094;-0.0188;0.1805;9.805;-0.003;-0.0092;-0.0052;-0.0018;-0.0024;3.0E-4;657.0;11.14;1.05;-34.16;278.46;-1.05;0.11;2.0;55.87352;-4.292727;333.87;NaN;;53.64516;;0 / 20;13836;2022-03-22 10:34:45:830
-0.0242;0.1364;9.8094;-0.0169;0.1804;9.805;0.0046;0.0068;-0.0045;-0.0014;-0.0014;3.0E-4;657.0;11.14;1.05;-34.16;278.46;-1.05;0.11;2.0;55.87352;-4.292727;333.87;NaN;;53.64516;;0 / 20;13935;2022-03-22 10:34:45:929
0.0069;0.1866;9.8357;-0.0166;0.1799;9.805;-0.0076;0.0018;-4.0E-4;-0.0014;-0.0014;3.0E-4;657.0;11.18;0.98;-34.33;278.44;-1.05;0.1;2.0;55.87352;-4.292727;333.87;NaN;;53.64516;;0 / 20;14035;2022-03-22 10:34:46:029
-0.0027;0.1651;9.8094;-0.0166;0.1789;9.805;-0.0084;-0.0021;-0.0014;-9.0E-4;-0.0014;3.0E-4;657.0;11.18;0.98;-34.33;278.44;-1.05;0.1;2.0;55.87352;-4.292727;333.87;NaN;;53.64516;;0 / 20;14135;2022-03-22 10:34:46:129
-0.0027;0.1412;9.8046;-0.0157;0.1788;9.805;-0.0061;0.002;0.0047;-0.0015;-0.0017;6.0E-4;657.0;11.03;0.9;-34.03;278.42;-1.05;0.1;2.0;55.87352;-4.292727;333.87;NaN;;53.64516;;0 / 20;14235;2022-03-22 10:34:46:229
-0.0266;0.1699;9.8046;-0.0157;0.1788;9.805;-0.0061;0.002;0.0047;-0.0017;-0.002;3.0E-4;657.0;11.03;0.9;-34.03;278.42;-1.05;0.1;2.0;55.87352;-4.292727;333.87;NaN;;53.64516;;0 / 20;14336;2022-03-22 10:34:46:330
-0.0218;0.2082;9.8285;-0.0148;0.1773;9.805;-0.0102;-0.0029;0.0021;-0.0017;-0.002;3.0E-4;657.0;11.31;1.26;-34.12;278.39;-1.04;0.09;2.0;55.87352;-4.292727;333.87;NaN;;53.64516;;0 / 20;14436;2022-03-22 10:34:46:430
-0.0218;0.1699;9.8166;-0.0143;0.1779;9.805;-0.0043;0.0093;0.0063;-0.0011;-0.0017;0.0011;657.0;11.31;1.44;-33.94;278.39;-1.04;0.09;2.0;55.87352;-4.292727;333.87;NaN;;53.64516;;0 / 20;14535;2022-03-22 10:34:46:529
-0.017;0.1795;9.807;-0.0133;0.1767;9.8051;-0.0037;0.001;-0.0012;-0.0017;-0.0021;3.0E-4;657.0;11.31;1.44;-33.94;278.39;-1.04;0.09;2.0;55.87352;-4.292727;333.87;NaN;;53.64516;;0 / 20;14635;2022-03-22 10:34:46:629
-0.0123;0.1866;9.8285;-0.0129;0.1773;9.805;-0.0081;0.01;-0.0037;-9.0E-4;-0.0017;3.0E-4;657.0;11.51;1.41;-34.09;277.68;-1.03;0.08;2.0;55.87352;-4.292727;333.87;NaN;;53.64516;;0 / 20;14735;2022-03-22 10:34:46:729
-0.0194;0.1914;9.8237;-0.0124;0.1767;9.8051;-0.0023;0.001;-0.0019;-9.0E-4;-0.0017;3.0E-4;657.0;11.25;1.26;-34.22;278.37;-1.03;0.07;2.0;55.87352;-4.292727;333.87;NaN;;53.64516;;0 / 20;14835;2022-03-22 10:34:46:829
-0.017;0.1723;9.8261;-0.0127;0.1775;9.805;-0.0083;0.0082;-2.0E-4;-0.0014;-0.0014;0.0011;657.0;11.25;1.26;-34.22;278.37;-1.03;0.07;2.0;55.87352;-4.292727;333.87;NaN;;53.64516;;0 / 20;14935;2022-03-22 10:34:46:929
-0.0147;0.1579;9.807;-0.0124;0.1778;9.805;-0.0079;0.0119;0.0047;-0.0014;-0.0014;3.0E-4;657.0;10.73;1.22;-34.11;278.39;-1.04;0.07;2.0;55.87352;-4.292727;333.87;NaN;;53.64516;;0 / 20;15035;2022-03-22 10:34:47:029
-0.0242;0.1962;9.8453;-0.0124;0.1778;9.805;-0.0079;0.0119;0.0047;0.0012;0.0041;0.0026;657.0;10.73;1.22;-34.11;278.39;-1.04;0.07;2.0;55.87352;-4.292727;333.87;NaN;;53.64516;;0 / 20;15135;2022-03-22 10:34:47:129
-0.0266;0.1675;9.7807;-0.0162;0.1794;9.805;-0.0025;0.0103;0.0079;0.0012;0.0041;0.0026;657.0;10.37;1.31;-33.94;279.26;-1.05;0.09;2.0;55.87352;-4.292727;333.87;NaN;;53.64516;;0 / 20;15235;2022-03-22 10:34:47:229
-0.0505;0.1603;9.8046;-0.0136;0.1747;9.8051;0.0078;-0.0114;-0.0189;-0.0018;-0.0017;6.0E-4;657.0;10.39;1.28;-33.62;279.26;-1.05;0.09;2.0;55.87352;-4.292727;333.87;NaN;;53.64516;;0 / 20;15336;2022-03-22 10:34:47:330
0.038;0.1579;9.807;-0.0157;0.1734;9.8051;-0.0149;0.0043;0.0013;-2.0E-4;0.0012;9.0E-4;657.0;10.39;1.28;-33.62;279.26;-1.05;0.09;2.0;55.87352;-4.292727;333.87;NaN;;53.64516;;0 / 20;15435;2022-03-22 10:34:47:429
0.038;0.1579;9.807;-0.0148;0.1732;9.8051;0.0033;0.0108;6.0E-4;-0.0014;-6.0E-4;6.0E-4;657.0;10.52;1.48;-33.36;278.23;-1.01;0.09;2.0;55.87352;-4.292727;333.87;NaN;;53.64516;;0 / 20;15535;2022-03-22 10:34:47:529
-0.0266;0.1436;9.8118;-0.0128;0.1721;9.8051;-2.0E-4;-0.0032;-0.0049;-0.0014;-6.0E-4;6.0E-4;657.0;10.37;1.16;-33.41;279.01;-1.01;0.08;2.0;55.87352;-4.292727;333.87;NaN;;53.64516;;0 / 20;15636;2022-03-22 10:34:47:630
0.0021;0.2106;9.8357;-0.0138;0.1714;9.8051;-0.008;-0.0017;0.0023;-9.0E-4;-0.0015;3.0E-4;657.0;10.43;0.92;-33.26;279.01;-1.01;0.08;2.0;55.87352;-4.292727;333.87;NaN;;53.64516;;0 / 20;15736;2022-03-22 10:34:47:730
0.0141;0.1723;9.8261;-0.0138;0.1714;9.8051;-0.008;-0.0017;0.0023;-0.0017;-0.0017;3.0E-4;657.0;10.43;0.92;-33.26;279.01;-1.01;0.08;2.0;55.87352;-4.292727;333.87;NaN;;53.64516;;0 / 20;15836;2022-03-22 10:34:47:830
-0.0242;0.1627;9.8166;-0.0135;0.1709;9.8052;-0.0043;0.0092;0.0045;-0.0017;-0.0017;3.0E-4;657.0;10.43;0.69;-33.53;279.09;-1.0;0.08;2.0;55.87352;-4.292727;333.87;NaN;;53.64516;;0 / 20;15936;2022-03-22 10:34:47:930
-0.0362;0.1579;9.8118;-0.0115;0.1699;9.8052;-8.0E-4;0.0094;-0.0035;-0.0017;-0.0017;3.0E-4;657.0;10.63;0.66;-33.81;278.25;-0.99;0.07;2.0;55.87352;-4.292727;333.87;NaN;;53.64516;;0 / 20;16035;2022-03-22 10:34:48:029
-0.0194;0.1866;9.8213;-0.012;0.1697;9.8052;-0.0099;0.004;0.0039;-0.0011;-0.0014;3.0E-4;657.0;10.63;0.66;-33.81;278.25;-0.99;0.07;2.0;55.87352;-4.292727;333.87;NaN;;53.64516;;0 / 20;16135;2022-03-22 10:34:48:129
-0.0051;0.1723;9.8213;-0.0117;0.1697;9.8052;-0.0045;0.0048;0.0035;-5.0E-4;-0.0014;5.0E-4;657.0;11.55;1.07;-33.79;277.57;-0.99;0.07;2.0;55.87352;-4.292727;333.87;NaN;;53.64516;;0 / 20;16235;2022-03-22 10:34:48:229
-0.0266;0.1651;9.8189;-0.0107;0.1704;9.8052;-0.0063;0.0056;0.0029;-0.0017;-0.0017;6.0E-4;657.0;11.55;1.07;-33.79;277.57;-0.99;0.07;2.0;55.87352;-4.292727;333.87;NaN;;53.64516;;0 / 20;16335;2022-03-22 10:34:48:329
-0.0218;0.1819;9.8166;-0.0102;0.1704;9.8052;-0.0076;0.0088;-4.0E-4;-0.0017;-0.0017;6.0E-4;657.0;11.68;1.46;-33.88;277.58;-1.0;0.06;2.0;55.87352;-4.292727;333.87;NaN;;53.64516;;0 / 20;16435;2022-03-22 10:34:48:429
-0.0242;0.1819;9.8213;-0.0109;0.1703;9.8052;-0.0053;0.005;-0.0044;-0.0014;-6.0E-4;6.0E-4;657.0;11.68;1.46;-33.88;277.58;-1.0;0.06;2.0;55.87352;-4.292727;333.87;NaN;;53.64516;;0 / 20;16536;2022-03-22 10:34:48:530
-0.017;0.1795;9.8237;-0.0109;0.1703;9.8052;-0.0053;0.005;-0.0044;-0.0014;-0.0011;3.0E-4;657.0;11.4;1.5;-33.98;283.3;-1.0;0.06;2.0;55.87352;-4.292727;333.87;NaN;;53.64516;;0 / 20;16635;2022-03-22 10:34:48:629
-0.0218;0.1723;9.8189;-0.0111;0.1709;9.8052;-0.0035;0.0083;5.0E-4;-0.0014;-0.0011;5.0E-4;657.0;11.4;1.5;-33.98;283.3;-1.0;0.06;2.0;55.87352;-4.292727;333.87;NaN;;53.64516;;0 / 20;16735;2022-03-22 10:34:48:729
-0.0123;0.189;9.8213;-0.0125;0.1709;9.8052;-0.0101;0.0051;-0.0025;-0.0014;-0.0011;5.0E-4;657.0;10.84;1.41;-33.9;278.27;-1.0;0.07;2.0;55.87352;-4.292727;333.87;NaN;;53.64516;;0 / 20;16836;2022-03-22 10:34:48:830
-0.0242;0.1699;9.8213;-0.0126;0.1713;9.8051;-0.0045;0.0104;6.0E-4;-0.0012;-0.0012;3.0E-4;657.0;10.84;1.41;-33.9;278.27;-1.0;0.07;2.0;55.87352;-4.292727;333.87;NaN;;53.64516;;0 / 20;16935;2022-03-22 10:34:48:929
-0.0147;0.1747;9.8189;-0.0137;0.1712;9.8051;-0.0042;0.0017;-0.0012;6.0E-4;0.002;0.0015;657.0;10.67;1.14;-33.86;278.28;-1.0;0.08;2.0;55.87352;-4.292727;333.87;NaN;;53.64516;;0 / 20;17035;2022-03-22 10:34:49:029
-0.0194;0.1795;9.8189;-0.0184;0.1747;9.8051;0.0014;-0.001;0.0024;-5.0E-4;-8.0E-4;6.0E-4;657.0;10.67;1.14;-33.86;278.28;-1.0;0.08;2.0;55.87352;-4.292727;333.87;NaN;;53.64516;;0 / 20;17135;2022-03-22 10:34:49:129
-0.0147;0.1771;9.8309;-0.0165;0.1742;9.8051;0.0027;0.0043;0.0021;-5.0E-4;-8.0E-4;6.0E-4;657.0;10.41;1.28;-33.64;279.18;-1.02;0.11;2.0;55.87352;-4.292727;333.87;NaN;;53.64516;;0 / 20;17236;2022-03-22 10:34:49:230
-0.017;0.1771;9.8213;-0.0164;0.1732;9.8051;-0.0046;-0.0012;0.003;-0.0012;-6.0E-4;6.0E-4;657.0;10.41;1.28;-33.64;279.18;-1.02;0.11;2.0;55.87352;-4.292727;333.87;NaN;;53.64516;;0 / 20;17335;2022-03-22 10:34:49:329
-0.0147;0.1747;9.8166;-0.0164;0.1732;9.8051;-0.0046;-0.0012;0.003;-5.0E-4;-9.0E-4;3.0E-4;657.0;10.76;1.22;-33.86;278.32;-1.01;0.1;2.0;55.87352;-4.292727;333.87;NaN;;53.64516;;0 / 20;17435;2022-03-22 10:34:49:429
-0.0194;0.1795;9.8166;-0.0163;0.1733;9.8051;-0.0023;0.0044;-0.0012;-9.0E-4;-3.0E-4;6.0E-4;657.0;10.76;1.22;-33.86;278.32;-1.01;0.1;2.0;55.87352;-4.292727;333.87;NaN;;53.64516;;0 / 20;17535;2022-03-22 10:34:49:529
-0.0147;0.1771;9.8166;-0.0159;0.1728;9.8051;-0.002;0.0025;-0.0033;-9.0E-4;-3.0E-4;6.0E-4;657.0;10.78;1.18;-33.6;278.31;-1.01;0.09;2.0;55.87352;-4.292727;333.87;NaN;;53.64516;;0 / 20;17636;2022-03-22 10:34:49:630
-0.017;0.1747;9.8213;-0.0159;0.1724;9.8051;-0.0035;0.0029;-9.0E-4;-0.0014;-6.0E-4;6.0E-4;657.0;10.78;1.18;-33.6;278.31;-1.01;0.09;2.0;55.87352;-4.292727;333.87;NaN;;53.64516;;0 / 20;17735;2022-03-22 10:34:49:729
-0.0147;0.1699;9.8189;-0.0149;0.1716;9.8051;-0.0014;0.0037;-0.0016;-9.0E-4;-8.0E-4;3.0E-4;657.0;10.88;1.14;-34.09;278.29;-1.0;0.09;2.0;55.87352;-4.292727;333.87;NaN;;53.64516;;0 / 20;17835;2022-03-22 10:34:49:829
-0.0194;0.1699;9.8142;-0.0139;0.1715;9.8051;-0.0031;0.0046;1.0E-4;-0.0011;-0.0014;3.0E-4;657.0;10.88;1.14;-34.09;278.29;-1.0;0.09;2.0;55.87352;-4.292727;333.87;NaN;;53.64516;;0 / 20;17936;2022-03-22 10:34:49:930
-0.017;0.1699;9.8189;-0.0146;0.1714;9.8051;-0.008;0.0062;4.0E-4;-0.0011;-0.0014;3.0E-4;657.0;11.04;1.26;-33.81;278.28;-1.0;0.08;2.0;55.87352;-4.292727;333.87;NaN;;53.64516;;0 / 20;18036;2022-03-22 10:34:50:030
-0.0147;0.1723;9.8213;-0.0142;0.1721;9.8051;-0.0044;0.0079;0.0024;-9.0E-4;-0.0017;3.0E-4;657.0;11.04;1.26;-33.81;278.28;-1.0;0.08;2.0;55.87352;-4.292727;333.87;NaN;;53.64516;;0 / 20;18135;2022-03-22 10:34:50:129
-0.017;0.1747;9.8142;-0.0142;0.1721;9.8051;-0.0044;0.0079;0.0024;0.0;-0.0014;0.0014;657.0;11.21;1.33;-33.86;278.3;-1.01;0.08;2.0;55.87352;-4.292727;333.87;NaN;;53.64516;;0 / 20;18236;2022-03-22 10:34:50:230
-0.0147;0.1699;9.8213;-0.0135;0.1722;9.8051;-0.0011;0.0015;-0.0046;-9.0E-4;-9.0E-4;3.0E-4;657.0;11.21;1.33;-33.86;278.3;-1.01;0.08;2.0;55.87352;-4.292727;333.87;NaN;;53.64516;;0 / 20;18335;2022-03-22 10:34:50:329
-0.0147;0.1723;9.8189;-0.0128;0.1714;9.8051;-0.0018;-0.0017;0.0019;-9.0E-4;-9.0E-4;3.0E-4;657.0;11.18;1.26;-33.71;278.28;-1.0;0.07;2.0;55.87352;-4.292727;333.87;NaN;;53.64516;;0 / 20;18435;2022-03-22 10:34:50:429
-0.0099;0.1842;9.8166;-0.0139;0.1718;9.8051;-0.0047;0.0027;-2.0E-4;-6.0E-4;-6.0E-4;5.0E-4;657.0;11.18;1.26;-33.71;278.28;-1.0;0.07;2.0;55.87352;-4.292727;333.87;NaN;;53.64516;;0 / 20;18535;2022-03-22 10:34:50:529
-0.0218;0.1819;9.8261;-0.0138;0.1717;9.8051;-0.0024;0.006;-8.0E-4;-9.0E-4;-5.0E-4;3.0E-4;657.0;11.19;1.33;-33.69;278.29;-1.0;0.08;2.0;55.87352;-4.292727;333.87;NaN;;53.64516;;0 / 20;18635;2022-03-22 10:34:50:629
-0.0123;0.1771;9.8237;-0.0136;0.171;9.8051;-0.0066;0.0059;7.0E-4;-0.0012;-0.0011;6.0E-4;657.0;11.19;1.33;-33.69;278.29;-1.0;0.08;2.0;55.87352;-4.292727;333.87;NaN;;53.64516;;0 / 20;18736;2022-03-22 10:34:50:730
-0.0242;0.1866;9.8237;-0.0134;0.1718;9.8051;-0.0021;0.0075;-0.0025;-0.0012;-0.0011;6.0E-4;657.0;11.18;1.09;-34.07;278.28;-1.0;0.08;2.0;55.87352;-4.292727;333.87;NaN;;53.64516;;0 / 20;18836;2022-03-22 10:34:50:830
-0.0338;0.189;9.8285;-0.0134;0.1718;9.8051;-0.0021;0.0075;-0.0025;-0.0014;-0.0024;-3.0E-4;657.0;11.18;1.09;-34.07;278.28;-1.0;0.08;2.0;55.87352;-4.292727;333.87;NaN;;53.64516;;0 / 20;18935;2022-03-22 10:34:50:929
-0.0242;0.1795;9.8237;-0.0125;0.1717;9.8051;-0.0061;0.0043;-0.0054;-2.0E-4;-5.0E-4;6.0E-4;657.0;11.25;0.86;-34.28;278.29;-1.0;0.07;2.0;55.87352;-4.292727;333.87;NaN;;53.64516;;0 / 20;19035;2022-03-22 10:34:51:029
-0.0218;0.1842;9.8237;-0.0139;0.1722;9.8051;-0.0087;0.0031;6.0E-4;-8.0E-4;-0.0014;6.0E-4;657.0;11.25;0.86;-34.28;278.29;-1.0;0.07;2.0;55.87352;-4.292727;333.87;NaN;;53.64516;;0 / 20;19136;2022-03-22 10:34:51:130
-0.0194;0.1842;9.8189;-0.0134;0.1719;9.8051;-0.0052;0.0073;6.0E-4;-8.0E-4;-0.0014;6.0E-4;657.0;11.31;1.05;-34.48;278.29;-1.0;0.08;2.0;55.87352;-4.292727;333.87;NaN;;53.64516;;0 / 20;19235;2022-03-22 10:34:51:229
-0.017;0.1651;9.8261;-0.0129;0.1722;9.8051;-0.0049;0.0079;-0.0017;-5.0E-4;-0.0011;3.0E-4;657.0;11.31;1.05;-34.48;278.29;-1.0;0.08;2.0;55.87352;-4.292727;333.87;NaN;;53.64516;;0 / 20;19335;2022-03-22 10:34:51:329
-0.0147;0.1675;9.8118;-0.013;0.1711;9.8051;-0.0025;-6.0E-4;-0.0036;-0.0014;-8.0E-4;3.0E-4;657.0;11.08;0.94;-34.11;278.28;-1.0;0.08;2.0;55.87352;-4.292727;333.87;NaN;;53.64516;;0 / 20;19435;2022-03-22 10:34:51:429
-0.017;0.1795;9.8309;-0.0135;0.1708;9.8052;-0.0059;0.0021;0.0019;-0.0011;-0.0014;6.0E-4;657.0;10.99;1.16;-33.9;278.28;-1.0;0.08;2.0;55.87352;-4.292727;333.87;NaN;;53.64516;;0 / 20;19536;2022-03-22 10:34:51:530
-0.0218;0.1795;9.8237;-0.0133;0.1708;9.8052;-0.0069;0.0029;-0.0022;-0.0011;-0.0014;6.0E-4;657.0;10.99;1.13;-33.79;278.27;-1.0;0.08;2.0;55.87352;-4.292727;333.87;NaN;;53.64516;;0 / 20;19635;2022-03-22 10:34:51:629
-0.017;0.1723;9.8213;-0.0133;0.1708;9.8052;-0.0069;0.0029;-0.0022;-5.0E-4;-0.0012;3.0E-4;657.0;10.99;1.13;-33.79;278.27;-1.0;0.08;2.0;55.87352;-4.292727;333.87;NaN;;53.64516;;0 / 20;19735;2022-03-22 10:34:51:729
-0.0099;0.1675;9.8189;-0.0135;0.1722;9.8051;-0.0059;0.011;0.0058;-0.0011;-8.0E-4;3.0E-4;657.0;10.8;1.16;-33.6;278.3;-1.01;0.08;2.0;55.87352;-4.292727;333.87;NaN;;53.64516;;0 / 20;19835;2022-03-22 10:34:51:829
-0.017;0.1412;9.7902;-0.0135;0.1716;9.8051;-0.0027;0.0052;0.0017;0.0031;0.0011;5.0E-4;657.0;10.8;1.16;-33.6;278.3;-1.01;0.08;2.0;55.87352;-4.292727;333.87;NaN;;53.64516;;0 / 20;19935;2022-03-22 10:34:51:929
-0.1032;0.3135;9.8477;-0.015;0.1766;9.8051;-0.0092;0.0249;0.0391;0.0031;0.0011;5.0E-4;657.0;10.95;1.26;-33.47;278.28;-1.03;0.09;2.0;55.87352;-4.292727;333.87;NaN;;53.64516;;0 / 20;20035;2022-03-22 10:34:52:029
-0.1032;0.3135;9.8477;-0.0148;0.1748;9.8051;-0.0238;0.0587;0.0089;-5.0E-4;-9.0E-4;6.0E-4;657.0;10.95;1.26;-33.47;278.28;-1.03;0.09;2.0;55.87352;-4.292727;333.87;NaN;;53.64516;;0 / 20;20135;2022-03-22 10:34:52:129
0.0117;0.1292;9.8118;-0.0153;0.173;9.8051;0.0119;-0.0528;-0.0145;5.0E-4;-5.0E-4;3.0E-4;657.0;10.86;0.86;-33.73;278.32;-1.01;0.09;2.0;55.87352;-4.292727;333.87;NaN;;53.64516;;0 / 20;20236;2022-03-22 10:34:52:230
-0.1056;0.2704;9.8812;-0.0143;0.176;9.8051;-0.0035;0.0408;0.0098;-5.0E-4;-5.0E-4;6.0E-4;657.0;11.04;0.9;-33.71;278.32;-1.01;0.09;2.0;55.87352;-4.292727;333.87;NaN;;53.64516;;0 / 20;20335;2022-03-22 10:34:52:329
-0.0434;0.1101;9.8166;-0.0163;0.1768;9.805;-0.0055;-0.0231;-0.0015;-5.0E-4;-5.0E-4;6.0E-4;657.0;11.04;0.9;-33.71;278.32;-1.01;0.09;2.0;55.87352;-4.292727;333.87;NaN;;53.64516;;0 / 20;20436;2022-03-22 10:34:52:430
-0.0338;0.2824;9.8572;-0.0163;0.1768;9.805;-0.0055;-0.0231;-0.0015;-0.0017;-8.0E-4;6.0E-4;657.0;11.01;0.53;-33.96;278.38;-1.03;0.1;2.0;55.87352;-4.292727;333.87;NaN;;53.64516;;0 / 20;20535;2022-03-22 10:34:52:529
0.0141;0.1149;9.8022;-0.0158;0.1771;9.805;-0.0052;0.0357;0.0074;-0.0026;-0.0012;6.0E-4;657.0;11.16;0.77;-33.88;278.39;-1.03;0.09;2.0;55.87352;-4.292727;333.87;NaN;;53.64516;;0 / 20;20636;2022-03-22 10:34:52:630
-0.017;0.0933;9.7998;-0.0142;0.1757;9.8051;0.0019;-0.0092;-0.0033;-0.0027;-0.0018;3.0E-4;657.0;11.1;0.94;-33.64;278.39;-1.03;0.09;2.0;55.87352;-4.292727;333.87;NaN;;53.64516;;0 / 20;20735;2022-03-22 10:34:52:729
-0.0314;0.1675;9.8166;-0.0126;0.171;9.8052;-0.0044;0.0106;-0.0021;-0.0027;-0.0018;3.0E-4;657.0;11.1;0.94;-33.64;278.39;-1.03;0.09;2.0;55.87352;-4.292727;333.87;NaN;;53.64516;;0 / 20;20836;2022-03-22 10:34:52:830
-0.017;0.1819;9.8309;-0.0136;0.1733;9.8051;-0.0018;-0.0124;-0.0165;0.0014;-2.0E-4;0.0011;657.0;11.01;0.83;-33.64;278.27;-1.0;0.07;2.0;55.87352;-4.292727;333.87;NaN;;53.64516;;0 / 20;20935;2022-03-22 10:34:52:929
-0.0242;0.213;9.8381;-0.0143;0.1759;9.8051;-0.0107;0.0257;0.0118;0.0011;-8.0E-4;5.0E-4;657.0;10.97;1.03;-33.26;278.22;-1.01;0.08;2.0;55.87352;-4.292727;333.87;NaN;;53.64516;;0 / 20;21035;2022-03-22 10:34:53:029
-0.029;0.1699;9.8142;-0.0134;0.1763;9.8051;-0.0084;0.0029;0.0062;-5.0E-4;-0.0017;3.0E-4;657.0;10.97;1.03;-33.26;278.22;-1.01;0.08;2.0;55.87352;-4.292727;333.87;NaN;;53.64516;;0 / 20;21135;2022-03-22 10:34:53:129
-0.0266;0.1938;9.8142;-0.0134;0.1763;9.8051;-0.0084;0.0029;0.0062;-5.0E-4;-0.0017;3.0E-4;657.0;10.91;0.83;-33.28;278.28;-1.03;0.08;2.0;55.87352;-4.292727;333.87;NaN;;53.64516;;0 / 20;21236;2022-03-22 10:34:53:230
-0.0123;0.189;9.8261;-0.0146;0.1775;9.805;-0.0104;0.0042;-0.0032;5.0E-4;-6.0E-4;6.0E-4;657.0;10.91;0.83;-33.28;278.28;-1.03;0.08;2.0;55.87352;-4.292727;333.87;NaN;;53.64516;;0 / 20;21336;2022-03-22 10:34:53:330
-0.029;0.1819;9.8142;-0.0146;0.1789;9.805;-0.0032;0.002;-9.0E-4;-9.0E-4;-0.0012;3.0E-4;657.0;10.89;0.73;-33.36;278.32;-1.05;0.09;2.0;55.87352;-4.292727;333.87;NaN;;53.64516;;0 / 20;21436;2022-03-22 10:34:53:430
-0.017;0.1819;9.8118;-0.0156;0.1786;9.805;-0.0054;0.0015;-0.0036;-0.0011;-5.0E-4;9.0E-4;657.0;10.89;0.73;-33.36;278.32;-1.05;0.09;2.0;55.87352;-4.292727;333.87;NaN;;53.64516;;0 / 20;21535;2022-03-22 10:34:53:529
-0.0099;0.1747;9.8237;-0.0159;0.1776;9.805;-0.0027;-0.0039;-0.0052;-0.0011;-5.0E-4;9.0E-4;657.0;10.84;0.9;-33.73;278.4;-1.04;0.09;2.0;55.87352;-4.292727;333.87;NaN;;53.64516;;0 / 20;21636;2022-03-22 10:34:53:630
-0.029;0.1914;9.8261;-0.0156;0.1777;9.805;-0.0038;-8.0E-4;-0.004;-3.0E-4;-6.0E-4;3.0E-4;657.0;10.84;0.9;-33.73;278.4;-1.04;0.09;2.0;55.87352;-4.292727;333.87;NaN;;53.64516;;0 / 20;21736;2022-03-22 10:34:53:730
-0.0338;0.1914;9.8142;-0.0158;0.1786;9.805;-0.0052;-1.0E-4;0.001;-3.0E-4;-0.0014;3.0E-4;657.0;10.84;1.33;-34.01;278.4;-1.04;0.09;2.0;55.87352;-4.292727;333.87;NaN;;53.64516;;0 / 20;21836;2022-03-22 10:34:53:830
-0.0123;0.1795;9.8094;-0.0162;0.1788;9.805;-0.0072;0.0108;0.005;-2.0E-4;-8.0E-4;6.0E-4;657.0;10.84;1.33;-34.01;278.4;-1.04;0.09;2.0;55.87352;-4.292727;333.87;NaN;;53.64516;;0 / 20;21936;2022-03-22 10:34:53:930
-0.0123;0.1603;9.8094;-0.0162;0.1788;9.805;-0.0072;0.0108;0.005;-2.0E-4;-8.0E-4;6.0E-4;657.0;10.65;1.43;-33.73;278.42;-1.04;0.09;2.0;55.87352;-4.292727;333.87;NaN;;53.64516;;0 / 20;22036;2022-03-22 10:34:54:030
-0.017;0.201;9.8405;-0.0161;0.1779;9.805;-9.0E-4;-0.0058;-0.0071;-0.0012;-0.0015;6.0E-4;657.0;10.65;1.43;-33.73;278.42;-1.04;0.09;2.0;55.87352;-4.292727;333.87;NaN;;53.64516;;0 / 20;22135;2022-03-22 10:34:54:129
-0.0194;0.1723;9.8166;-0.0155;0.1781;9.805;-0.0039;0.0099;0.0041;-0.0017;-0.0014;3.0E-4;657.0;10.59;1.26;-33.71;278.41;-1.04;0.09;2.0;55.87352;-4.292727;333.87;NaN;;53.64516;;0 / 20;22236;2022-03-22 10:34:54:230
-0.0218;0.1962;9.8357;-0.0157;0.178;9.805;-0.0061;0.0029;-2.0E-4;-0.0023;-0.0023;3.0E-4;657.0;10.61;0.92;-33.54;278.41;-1.04;0.09;2.0;55.87352;-4.292727;333.87;NaN;;53.64516;;0 / 20;22336;2022-03-22 10:34:54:330
-0.017;0.1914;9.8189;-0.0134;0.1761;9.8051;-0.0061;0.0103;0.0118;-0.0023;-0.0023;3.0E-4;657.0;10.61;0.92;-33.54;278.41;-1.04;0.09;2.0;55.87352;-4.292727;333.87;NaN;;53.64516;;0 / 20;22436;2022-03-22 10:34:54:430
-0.0123;0.1723;9.807;-0.0124;0.1715;9.8051;-0.007;-0.013;-0.0085;-0.0037;-0.0023;6.0E-4;657.0;10.56;0.9;-33.73;278.36;-1.03;0.08;2.0;55.87352;-4.292727;333.87;NaN;;53.64516;;0 / 20;22536;2022-03-22 10:34:54:530
-0.017;0.1675;9.8189;-0.0114;0.1706;9.8052;-0.004;0.0055;-0.0018;-0.0017;-0.0017;3.0E-4;657.0;10.84;0.68;-33.92;278.28;-1.0;0.07;2.0;55.87352;-4.292727;333.87;NaN;;53.64516;;0 / 20;22635;2022-03-22 10:34:54:629
-0.017;0.1555;9.8213;-0.0121;0.172;9.8051;-0.0081;0.0073;0.0048;-8.0E-4;-0.0017;3.0E-4;657.0;10.84;0.68;-33.92;278.28;-1.0;0.07;2.0;55.87352;-4.292727;333.87;NaN;;53.64516;;0 / 20;22736;2022-03-22 10:34:54:730
-0.0147;0.1699;9.8213;-0.0121;0.172;9.8051;-0.0081;0.0073;0.0048;-8.0E-4;-0.0017;3.0E-4;657.0;10.91;0.94;-34.12;278.29;-1.0;0.07;2.0;55.87352;-4.292727;333.87;NaN;;53.64516;;0 / 20;22835;2022-03-22 10:34:54:829
-0.0099;0.1507;9.8142;-0.0119;0.1703;9.8052;-0.0036;0.001;-0.0011;-0.0014;-0.0017;-2.0E-4;657.0;10.91;0.94;-34.12;278.29;-1.0;0.07;2.0;55.87352;-4.292727;333.87;NaN;;53.64516;;0 / 20;22935;2022-03-22 10:34:54:929
-0.0218;0.1842;9.8213;-0.0119;0.1704;9.8052;-0.0035;0.0064;0.0041;-5.0E-4;-8.0E-4;5.0E-4;657.0;11.33;0.84;-34.12;278.26;-1.0;0.07;2.0;55.87352;-4.292727;333.87;NaN;;53.64516;;0 / 20;23035;2022-03-22 10:34:55:029
-0.0147;0.1723;9.8261;-0.0118;0.1703;9.8052;-0.0045;2.0E-4;0.0;-8.0E-4;-0.0012;5.0E-4;657.0;11.33;0.84;-34.12;278.26;-1.0;0.07;2.0;55.87352;-4.292727;333.87;NaN;;53.64516;;0 / 20;23136;2022-03-22 10:34:55:130
-0.0194;0.1699;9.8333;-0.012;0.1717;9.8051;-0.0011;0.0131;0.0037;-8.0E-4;-0.0012;5.0E-4;657.0;11.23;0.62;-33.9;278.28;-1.0;0.07;2.0;55.87352;-4.292727;333.87;NaN;;53.64516;;0 / 20;23236;2022-03-22 10:34:55:230
-0.0218;0.1866;9.8333;-0.0121;0.1707;9.8052;-0.0065;0.0013;3.0E-4;-0.0012;-9.0E-4;6.0E-4;657.0;11.23;0.62;-33.9;278.28;-1.0;0.07;2.0;55.87352;-4.292727;333.87;NaN;;53.64516;;0 / 20;23335;2022-03-22 10:34:55:329
-0.0625;0.5578;10.0702;-0.0131;0.165;9.8053;9.0E-4;-0.0718;-0.0487;0.0023;5.0E-4;-2.0E-4;657.0;10.8;0.68;-33.56;278.27;-1.0;0.07;2.0;55.87352;-4.292727;333.87;NaN;;53.64516;;0 / 20;23435;2022-03-22 10:34:55:429
-0.0362;0.1484;9.7854;-0.0131;0.165;9.8053;9.0E-4;-0.0718;-0.0487;2.0E-4;-5.0E-4;0.0011;657.0;10.8;0.68;-33.56;278.27;-1.0;0.07;2.0;55.87352;-4.292727;333.87;NaN;;53.64516;;0 / 20;23535;2022-03-22 10:34:55:529
-0.0075;0.1101;9.8261;-0.0138;0.1771;9.805;0.0056;0.0635;0.0363;2.0E-4;-5.0E-4;0.0011;657.0;10.89;0.98;-33.54;278.38;-1.03;0.08;2.0;55.87352;-4.292727;333.87;NaN;;53.64516;;0 / 20;23635;2022-03-22 10:34:55:629
-0.0194;0.1531;9.7926;-0.0126;0.1702;9.8052;-0.0053;-0.0316;-0.0107;5.0E-4;-6.0E-4;-2.0E-4;657.0;10.89;0.98;-33.54;278.38;-1.03;0.08;2.0;55.87352;-4.292727;333.87;NaN;;53.64516;;0 / 20;23736;2022-03-22 10:34:55:730
-0.0099;0.3135;9.862;-0.0172;0.1807;9.805;-0.0253;0.0472;0.01;0.0;-8.0E-4;3.0E-4;657.0;10.65;1.01;-33.62;278.46;-1.06;0.1;2.0;55.87352;-4.292727;333.87;NaN;;53.64516;;0 / 20;23836;2022-03-22 10:34:55:830
-0.0194;0.1101;9.7926;-0.0138;0.1754;9.8051;0.0087;-0.024;-0.0137;-0.0012;-8.0E-4;0.0014;657.0;10.97;0.84;-33.56;278.46;-1.06;0.1;2.0;55.87352;-4.292727;333.87;NaN;;53.64516;;0 / 20;23935;2022-03-22 10:34:55:929
-0.0027;0.1723;9.8189;-0.0152;0.1806;9.805;-0.0051;0.0082;-0.0013;-0.0012;-8.0E-4;0.0014;657.0;10.97;0.84;-33.56;278.46;-1.06;0.1;2.0;55.87352;-4.292727;333.87;NaN;;53.64516;;0 / 20;24036;2022-03-22 10:34:56:030
-0.0194;0.2297;9.8405;-0.015;0.1788;9.805;-0.0021;5.0E-4;2.0E-4;5.0E-4;-5.0E-4;3.0E-4;657.0;10.73;0.69;-33.49;278.35;-1.06;0.09;2.0;55.87352;-4.292727;333.87;NaN;;53.64516;;0 / 20;24136;2022-03-22 10:34:56:130
-0.0099;0.1579;9.807;-0.0151;0.1792;9.805;-0.0059;0.0048;0.0;-8.0E-4;-0.0014;6.0E-4;657.0;10.58;0.62;-33.58;278.42;-1.04;0.09;2.0;55.87352;-4.292727;333.87;NaN;;53.64516;;0 / 20;24236;2022-03-22 10:34:56:230
-0.0266;0.1986;9.8333;-0.0151;0.1792;9.805;-0.0059;0.0048;0.0;-0.0012;-0.0012;3.0E-4;657.0;10.58;0.62;-33.58;278.42;-1.04;0.09;2.0;55.87352;-4.292727;333.87;NaN;;53.64516;;0 / 20;24336;2022-03-22 10:34:56:330
-0.0314;0.2106;9.8189;-0.0151;0.1786;9.805;-0.0091;-0.0073;-9.0E-4;-0.0012;-0.0012;3.0E-4;657.0;10.39;0.77;-33.47;279.14;-1.04;0.09;2.0;55.87352;-4.292727;333.87;NaN;;53.64516;;0 / 20;24436;2022-03-22 10:34:56:430
-0.0218;0.1866;9.8285;-0.016;0.1801;9.805;-0.005;0.0079;0.0014;-3.0E-4;-0.0014;6.0E-4;657.0;10.73;0.73;-33.49;279.14;-1.04;0.09;2.0;55.87352;-4.292727;333.87;NaN;;53.64516;;0 / 20;24536;2022-03-22 10:34:56:530
-0.0147;0.189;9.8237;-0.016;0.1797;9.805;-0.0034;0.0027;7.0E-4;-0.0014;-8.0E-4;3.0E-4;657.0;10.73;0.73;-33.49;279.14;-1.04;0.09;2.0;55.87352;-4.292727;333.87;NaN;;53.64516;;0 / 20;24636;2022-03-22 10:34:56:630
-0.0147;0.189;9.8237;-0.0156;0.1787;9.805;-0.0014;0.0046;-0.0019;-0.0015;-0.0015;3.0E-4;657.0;10.93;0.66;-33.45;278.34;-1.05;0.09;2.0;55.87352;-4.292727;333.87;NaN;;53.64516;;0 / 20;24736;2022-03-22 10:34:56:730
-0.0218;0.1651;9.8118;-0.0166;0.1784;9.805;-0.0116;9.0E-4;2.0E-4;-0.0015;-0.0015;3.0E-4;657.0;11.27;0.66;-33.53;278.41;-1.04;0.1;2.0;55.87352;-4.292727;333.87;NaN;;53.64516;;0 / 20;24836;2022-03-22 10:34:56:830
-0.0194;0.1795;9.8285;-0.016;0.178;9.805;-0.0066;0.0029;-4.0E-4;-0.0012;-0.0012;6.0E-4;657.0;11.27;0.66;-33.53;278.41;-1.04;0.1;2.0;55.87352;-4.292727;333.87;NaN;;53.64516;;0 / 20;24936;2022-03-22 10:34:56:930
-0.0218;0.1795;9.8118;-0.016;0.1788;9.805;-0.0066;0.0061;-0.0013;-0.0012;-0.0017;5.0E-4;657.0;11.55;0.84;-33.41;277.62;-1.04;0.09;2.0;55.87352;-4.292727;333.87;NaN;;53.64516;;0 / 20;25036;2022-03-22 10:34:57:030
-0.0194;0.1771;9.8213;-0.016;0.1788;9.805;-0.0066;0.0061;-0.0013;0.0017;0.0018;0.0012;657.0;11.55;0.84;-33.41;277.62;-1.04;0.09;2.0;55.87352;-4.292727;333.87;NaN;;53.64516;;0 / 20;25136;2022-03-22 10:34:57:130
-0.0218;0.1842;9.8166;-0.0176;0.18;9.805;-0.0034;0.0016;-0.0014;0.0017;0.0018;0.0012;657.0;11.36;1.24;-33.62;278.45;-1.05;0.1;2.0;55.87352;-4.292727;333.87;NaN;;53.64516;;0 / 20;25235;2022-03-22 10:34:57:229
-0.0218;0.1842;9.8118;-0.0176;0.1799;9.805;-0.0042;-0.0014;-0.0048;-2.0E-4;-5.0E-4;3.0E-4;657.0;11.36;1.24;-33.62;278.45;-1.05;0.1;2.0;55.87352;-4.292727;333.87;NaN;;53.64516;;0 / 20;25336;2022-03-22 10:34:57:330
-0.0242;0.1747;9.8118;-0.018;0.1812;9.805;-0.0062;0.0037;-5.0E-4;-2.0E-4;-5.0E-4;5.0E-4;657.0;11.4;1.46;-33.66;278.47;-1.06;0.11;2.0;55.87352;-4.292727;333.87;NaN;;53.64516;;0 / 20;25435;2022-03-22 10:34:57:429
-0.0099;0.1819;9.8237;-0.0184;0.1808;9.805;-0.005;0.0041;4.0E-4;-0.002;-0.0011;3.0E-4;657.0;11.4;1.46;-33.66;278.47;-1.06;0.11;2.0;55.87352;-4.292727;333.87;NaN;;53.64516;;0 / 20;25536;2022-03-22 10:34:57:530
-0.0099;0.1747;9.8166;-0.0176;0.1794;9.805;-0.001;0.0054;0.0065;-0.002;-0.0011;3.0E-4;657.0;11.18;1.14;-33.75;278.44;-1.05;0.1;2.0;55.87352;-4.292727;333.87;NaN;;53.64516;;0 / 20;25635;2022-03-22 10:34:57:629
-0.041;0.2177;9.8524;-0.0167;0.1762;9.8051;-0.0083;0.0174;0.0176;-0.004;-0.002;9.0E-4;657.0;11.18;1.14;-33.75;278.44;-1.05;0.1;2.0;55.87352;-4.292727;333.87;NaN;;53.64516;;0 / 20;25735;2022-03-22 10:34:57:729
0.0308;0.2369;9.8453;-0.0167;0.1762;9.8051;-0.0083;0.0174;0.0176;-6.0E-4;-0.0011;6.0E-4;657.0;11.04;1.14;-33.66;278.38;-1.03;0.1;2.0;55.87352;-4.292727;333.87;NaN;;53.64516;;0 / 20;25835;2022-03-22 10:34:57:829
-0.0601;0.1938;9.8261;-0.0154;0.1717;9.8051;0.004;0.0131;0.0097;-0.0011;-0.0011;6.0E-4;657.0;11.04;1.14;-33.66;278.38;-1.03;0.1;2.0;55.87352;-4.292727;333.87;NaN;;53.64516;;0 / 20;25936;2022-03-22 10:34:57:930
-0.0553;0.1819;9.8285;-0.0142;0.1718;9.8051;-0.0053;-0.0013;0.002;-0.0011;-0.0011;6.0E-4;657.0;11.03;0.94;-33.53;278.29;-1.0;0.08;2.0;55.87352;-4.292727;333.87;NaN;;53.64516;;0 / 20;26035;2022-03-22 10:34:58:029
-0.0314;0.1986;9.8237;-0.0159;0.1715;9.8051;-0.0147;0.0125;0.0038;-0.0011;-8.0E-4;3.0E-4;657.0;11.03;0.94;-33.53;278.29;-1.0;0.08;2.0;55.87352;-4.292727;333.87;NaN;;53.64516;;0 / 20;26136;2022-03-22 10:34:58:130
-0.0242;0.2225;9.8405;-0.0149;0.1713;9.8051;0.0043;0.004;0.0035;-0.0011;-3.0E-4;6.0E-4;657.0;11.27;1.33;-33.49;278.19;-1.0;0.09;2.0;55.87352;-4.292727;333.87;NaN;;53.64516;;0 / 20;26235;2022-03-22 10:34:58:229
0.0212;0.1388;9.8022;-0.014;0.1708;9.8052;2.0E-4;-0.0019;-0.003;-3.0E-4;-5.0E-4;-0.002;596.0;11.27;1.33;-33.49;278.19;-1.0;0.09;2.0;55.87352;-4.292727;333.87;NaN;;53.64516;;0 / 20;26335;2022-03-22 10:34:58:329
-0.0386;0.2034;9.7974;-0.0162;0.1716;9.8051;-0.008;-0.0027;-0.003;-3.0E-4;-5.0E-4;-0.002;596.0;11.31;1.2;-33.66;278.27;-1.0;0.08;2.0;55.87352;-4.292727;333.87;NaN;;53.64516;;0 / 20;26435;2022-03-22 10:34:58:429
0.0141;0.1938;9.8213;-0.0204;0.177;9.805;0.0058;-0.0049;0.0047;-3.0E-4;5.0E-4;-0.078;557.0;11.31;1.2;-33.66;278.27;-1.0;0.08;2.0;55.87352;-4.292727;333.87;NaN;;53.64516;;0 / 20;26536;2022-03-22 10:34:58:530
-0.0218;0.213;9.8285;-0.0204;0.177;9.805;0.0058;-0.0049;0.0047;-0.0017;-0.004;-0.0347;557.0;10.86;1.07;-33.73;278.4;-1.03;0.12;2.0;55.87352;-4.292727;333.87;NaN;;53.64516;;0 / 20;26635;2022-03-22 10:34:58:629
-0.0194;0.1675;9.8357;-0.0179;0.1714;9.8051;-7.0E-4;0.0158;0.0015;0.002;0.0027;0.0011;557.0;10.58;1.22;-33.96;278.4;-1.03;0.12;2.0;55.87352;-4.292727;333.87;NaN;;53.64516;;0 / 20;26736;2022-03-22 10:34:58:730
-0.0135;0.1747;9.8118;-0.022;0.1738;9.8051;-0.003;0.0023;0.0033;0.002;0.0027;0.0011;557.0;10.58;1.22;-33.96;278.4;-1.03;0.12;2.0;55.87352;-4.292727;333.87;NaN;;53.64516;;0 / 20;26836;2022-03-22 10:34:58:830
-0.6921;-0.0885;9.8728;-0.022;0.1738;9.8051;-0.003;0.0023;0.0033;-0.0058;0.0869;0.0102;557.0;10.33;1.18;-34.2;279.17;-1.02;0.13;2.0;55.87352;-4.292727;333.87;NaN;;53.64516;;0 / 20;26936;2022-03-22 10:34:58:930
0.4104;-0.3676;9.5267;-0.1661;0.1967;9.8033;0.0852;0.2454;0.0155;-0.0058;0.0869;0.0102;557.0;10.31;1.48;-34.31;280.14;-1.15;0.97;2.0;55.87352;-4.292727;333.87;NaN;;53.64516;;0 / 20;27035;2022-03-22 10:34:59:029
2.5014;-1.0319;12.9048;0.1214;-0.158;9.8046;0.0103;0.0227;-0.1647;-0.4306;-0.9253;-0.1348;480.0;10.31;1.48;-34.31;280.14;-1.15;0.97;2.0;55.87352;-4.292727;333.87;NaN;;53.64516;;0 / 20;27135;2022-03-22 10:34:59:129
0.542;0.2297;9.4454;1.4653;-0.3634;9.6897;0.7863;-0.6188;2.8596;0.6455;-0.2749;-0.1657;480.0;7.33;1.84;-36.07;273.34;2.12;-8.6;2.0;55.87352;-4.292727;333.87;NaN;;53.64516;;0 / 20;27236;2022-03-22 10:34:59:230
1.6744;0.5267;8.811;1.7838;0.4127;9.6342;-0.0704;-0.0627;0.1818;0.4891;-0.17;-0.0699;480.0;7.33;1.84;-36.07;273.34;2.12;-8.6;2.0;55.87352;-4.292727;333.87;NaN;;53.64516;;0 / 20;27335;2022-03-22 10:34:59:329
-2.0234;-0.5578;8.1156;1.8779;0.7985;9.592;0.5471;-0.4356;-1.3378;0.4891;-0.17;-0.0699;463.0;4.91;2.74;-36.3;291.2;-2.41;-10.49;2.0;55.87352;-4.292727;333.87;NaN;;53.64516;;0 / 20;27435;2022-03-22 10:34:59:429
0.481;0.8653;9.6523;1.4612;1.1831;9.6247;0.944;-0.1486;0.2289;0.1107;0.4803;0.4484;463.0;4.91;2.74;-36.3;291.2;-2.41;-10.49;2.0;55.87352;-4.292727;333.87;NaN;;53.64516;;0 / 20;27535;2022-03-22 10:34:59:529
2.3674;3.3182;8.7476;1.4612;1.1831;9.6247;0.944;-0.1486;0.2289;1.1869;0.3271;0.4423;463.0;3.28;2.12;-36.96;306.67;-6.93;-8.63;2.0;55.87352;-4.292727;333.87;NaN;;53.64516;;0 / 20;27635;2022-03-22 10:34:59:629
0.9359;2.2648;10.4258;1.2045;2.2817;9.4612;0.1402;0.2381;-1.573;0.275;0.3819;0.1327;510.0;3.28;2.12;-36.96;306.67;-6.93;-8.63;2.0;55.87352;-4.292727;333.87;NaN;;53.64516;;0 / 20;27735;2022-03-22 10:34:59:729
-0.1618;3.4235;9.0371;0.3259;2.225;9.5453;0.3615;0.02;0.4391;0.275;0.3819;0.1327;510.0;6.84;-0.96;-37.24;311.72;-13.11;-1.96;2.0;55.87352;-4.292727;333.87;NaN;;53.64516;;0 / 20;27836;2022-03-22 10:34:59:830
-0.6347;2.7245;10.0786;0.0666;3.1559;9.2847;0.3177;0.8393;-0.5046;0.1694;0.2998;-0.3409;544.0;10.78;-3.96;-36.26;311.72;-13.11;-1.96;2.0;55.87352;-4.292727;333.87;NaN;;53.64516;;0 / 20;27935;2022-03-22 10:34:59:929
0.0105;4.223;10.4785;-0.4645;3.3453;9.2067;-0.0215;0.123;-1.1181;-0.1776;0.1034;0.0255;544.0;10.78;-3.96;-36.26;311.72;-13.11;-1.96;2.0;55.87352;-4.292727;333.87;NaN;;53.64516;;0 / 20;28035;2022-03-22 10:35:00:029
0.3087;3.9814;10.421;-0.2885;3.1467;9.2836;-0.3423;0.2599;-0.7805;-0.2466;-0.0919;-0.0936;544.0;15.0;-7.07;-34.78;292.97;-19.95;2.89;2.0;55.87352;-4.292727;333.87;NaN;;53.64516;;0 / 20;28137;2022-03-22 10:35:00:131
-0.0625;3.7014;9.4214;-0.1549;3.1571;9.2833;-0.0292;0.1855;-0.2264;-0.2466;-0.0919;-0.0936;544.0;18.23;-8.68;-32.76;277.52;-18.72;1.78;2.0;55.87352;-4.292727;333.87;NaN;;53.64516;;0 / 20;28236;2022-03-22 10:35:00:230
0.1481;3.402;8.9163;0.1724;3.3517;9.2145;0.0757;0.0833;-0.1071;0.2074;-0.1689;-0.1248;544.0;18.23;-8.68;-32.76;277.52;-18.72;1.78;2.0;55.87352;-4.292727;333.87;NaN;;53.64516;;0 / 20;28335;2022-03-22 10:35:00:329
0.4403;3.4367;8.5271;0.1724;3.3517;9.2145;0.0757;0.0833;-0.1071;0.1223;-0.2492;0.1306;544.0;19.65;-11.68;-30.39;266.79;-19.99;-1.07;2.0;55.87352;-4.292727;333.87;NaN;;53.64516;;0 / 20;28435;2022-03-22 10:35:00:429
0.664;3.9742;9.7639;0.5142;3.4434;9.1678;0.0868;0.3618;-0.6424;0.0377;0.0075;0.0069;544.0;19.65;-11.68;-30.39;266.79;-19.99;-1.07;2.0;55.87352;-4.292727;333.87;NaN;;53.64516;;0 / 20;28535;2022-03-22 10:35:00:529
1.0579;3.6891;9.2204;0.6123;3.4978;9.1412;-0.1257;0.2818;0.0715;0.0377;0.0075;0.0069;544.0;18.13;-13.54;-29.92;261.93;-20.9;-3.83;2.0;55.87352;-4.292727;333.87;NaN;;53.64516;;0 / 20;28635;2022-03-22 10:35:00:629
0.8545;3.3278;9.571;0.695;3.5963;9.0969;0.1134;0.1515;-0.2966;0.1122;-0.1278;0.0455;544.0;18.13;-13.54;-29.92;261.93;-20.9;-3.83;2.0;55.87352;-4.292727;333.87;NaN;;53.64516;;0 / 20;28738;2022-03-22 10:35:00:732
0.9311;3.481;9.425;0.7004;3.5306;9.1222;0.2286;-0.1979;0.6938;-0.0484;0.0739;-0.0618;544.0;16.14;-15.49;-30.64;259.77;-21.1;-4.39;2.0;55.87352;-4.292727;333.87;NaN;;53.64516;;0 / 20;28836;2022-03-22 10:35:00:830
0.6473;3.4965;8.8732;0.745;3.6539;9.07;0.0808;-0.1511;0.2044;0.192;-0.0521;0.0418;544.0;15.06;-15.9;-30.97;259.77;-21.1;-4.39;2.0;55.87352;-4.292727;333.87;NaN;;53.64516;;0 / 20;28935;2022-03-22 10:35:00:929
0.6245;3.7792;9.0263;0.7877;3.8326;8.9923;-0.0406;-0.0349;-0.0471;0.1151;0.0331;-0.018;544.0;15.06;-15.9;-30.97;259.77;-21.1;-4.39;2.0;55.87352;-4.292727;333.87;NaN;;53.64516;;0 / 20;29035;2022-03-22 10:35:01:029
0.7884;4.0986;8.9079;0.7308;3.9347;8.9529;-0.0493;-0.0941;0.1114;0.1151;0.0331;-0.018;544.0;14.23;-16.12;-31.24;259.33;-23.01;-5.01;2.0;55.87352;-4.292727;333.87;NaN;;53.64516;;0 / 20;29135;2022-03-22 10:35:01:129
0.6257;4.2314;8.945;0.7308;3.9347;8.9529;-0.0493;-0.0941;0.1114;0.0397;0.0594;-0.0472;544.0;13.74;-16.44;-31.57;262.04;-23.65;-4.67;2.0;55.87352;-4.292727;333.87;NaN;;53.64516;;0 / 20;29236;2022-03-22 10:35:01:230
0.6855;4.1082;9.0574;0.6282;3.997;8.9331;-0.1106;0.0441;0.2489;0.0217;0.0869;-0.0215;544.0;13.41;-16.95;-31.48;262.04;-23.65;-4.67;2.0;55.87352;-4.292727;333.87;NaN;;53.64516;;0 / 20;29336;2022-03-22 10:35:01:330
0.5133;4.028;8.5128;0.4858;4.024;8.9298;0.0611;0.036;0.3141;0.0217;0.0869;-0.0215;544.0;13.41;-16.95;-31.48;262.04;-23.65;-4.67;2.0;55.87352;-4.292727;333.87;NaN;;53.64516;;0 / 20;29435;2022-03-22 10:35:01:429
0.3003;3.6054;8.5825;0.5825;3.9161;8.9719;0.0844;0.1619;-0.1811;-0.206;-0.1972;-0.0785;544.0;13.24;-17.46;-31.54;259.68;-24.23;-3.11;2.0;55.87352;-4.292727;333.87;NaN;;53.64516;;0 / 20;29536;2022-03-22 10:35:01:530
0.5432;3.7325;8.8684;0.5542;3.81;9.0193;-0.142;-0.1021;-0.1502;-0.0643;-0.1072;0.0728;544.0;13.63;-17.33;-31.93;257.31;-22.86;-3.52;2.0;55.87352;-4.292727;333.87;NaN;;53.64516;;0 / 20;29636;2022-03-22 10:35:01:630
0.6748;3.9132;8.9833;0.6062;3.8307;9.0071;-0.0311;-0.0381;-0.1193;-0.0504;-0.0278;-0.0038;544.0;13.63;-17.33;-31.93;257.31;-22.86;-3.52;2.0;55.87352;-4.292727;333.87;NaN;;53.64516;;0 / 20;29736;2022-03-22 10:35:01:730
0.408;3.9239;8.8253;0.5665;3.7913;9.0264;-0.0995;-0.0221;0.5555;-0.0504;-0.0278;-0.0038;544.0;13.54;-16.91;-32.16;257.6;-22.99;-3.85;2.0;55.87352;-4.292727;333.87;NaN;;53.64516;;0 / 20;29835;2022-03-22 10:35:01:829
0.4941;3.615;9.1077;0.5665;3.7913;9.0264;-0.0995;-0.0221;0.5555;0.025;0.1086;-0.0151;544.0;13.54;-16.91;-32.16;257.6;-22.99;-3.85;2.0;55.87352;-4.292727;333.87;NaN;;53.64516;;0 / 20;29936;2022-03-22 10:35:01:930
0.845;3.9885;8.8995;0.4217;3.7682;9.0439;-0.1463;-0.2431;-0.2146;0.014;-0.0194;0.1141;544.0;14.25;-16.28;-32.14;259.96;-22.6;-2.67;2.0;55.87352;-4.292727;333.87;NaN;;53.64516;;0 / 20;30036;2022-03-22 10:35:02:030
0.4331;3.6616;9.2097;0.5316;3.7693;9.0377;0.2232;0.1462;-0.2264;0.014;-0.0194;0.1141;544.0;14.14;-16.35;-31.93;259.96;-22.6;-3.37;2.0;55.87352;-4.292727;333.87;NaN;;53.64516;;0 / 20;30135;2022-03-22 10:35:02:129
0.451;3.5145;8.86;0.5427;3.741;9.0488;0.0243;-0.0482;0.24;0.078;0.0179;0.0333;544.0;14.14;-16.35;-31.93;259.96;-22.6;-3.37;2.0;55.87352;-4.292727;333.87;NaN;;53.64516;;0 / 20;30236;2022-03-22 10:35:02:230
0.6042;3.9491;9.2444;0.5559;3.8309;9.0103;0.0756;0.017;-0.0657;-0.1544;-0.0701;-0.004;544.0;14.44;-16.26;-31.48;258.21;-22.43;-3.43;2.0;55.87352;-4.292727;333.87;NaN;;53.64516;;0 / 20;30335;2022-03-22 10:35:02:329
0.737;3.5743;9.5566;0.6152;3.6775;9.0702;-0.0952;-0.0633;0.222;-0.1544;-0.0701;-0.004;544.0;14.49;-16.03;-31.35;257.41;-22.02;-3.88;2.0;55.87352;-4.292727;333.87;NaN;;53.64516;;0 / 20;30435;2022-03-22 10:35:02:429
0.5288;3.6712;8.9007;0.6252;3.6921;9.0636;0.0209;-0.0672;-0.0516;0.0298;-0.0099;0.0073;544.0;14.49;-16.03;-31.35;257.41;-22.02;-3.88;2.0;55.87352;-4.292727;333.87;NaN;;53.64516;;0 / 20;30535;2022-03-22 10:35:02:529
0.3948;3.5862;9.0227;0.6198;3.6725;9.0719;-0.1715;-0.1544;-0.1371;-0.0156;0.0228;-0.0176;544.0;14.34;-15.84;-31.76;258.92;-22.12;-3.95;2.0;55.87352;-4.292727;333.87;NaN;;53.64516;;0 / 20;30635;2022-03-22 10:35:02:629
0.5743;3.5133;8.8265;0.6198;3.6725;9.0719;-0.1715;-0.1544;-0.1371;-0.0191;-0.016;0.0136;544.0;14.34;-15.84;-31.76;258.92;-22.12;-3.95;2.0;55.87352;-4.292727;333.87;NaN;;53.64516;;0 / 20;30735;2022-03-22 10:35:02:729
0.7382;3.5623;8.9342;0.6583;3.6424;9.0813;-0.0213;0.0121;-0.055;0.0301;-0.0238;0.0024;544.0;14.64;-15.69;-32.01;258.85;-21.8;-4.15;2.0;55.87352;-4.292727;333.87;NaN;;53.64516;;0 / 20;30835;2022-03-22 10:35:02:829
0.615;3.6066;9.2551;0.6822;3.6488;9.077;0.0179;-0.0491;0.0478;0.0301;-0.0238;0.0024;544.0;14.64;-15.69;-32.01;258.85;-21.8;-4.15;2.0;55.87352;-4.292727;333.87;NaN;;53.64516;;0 / 20;30936;2022-03-22 10:35:02:930
0.5001;3.5719;9.2252;0.6877;3.6628;9.0709;0.0476;0.1471;0.2069;0.0385;0.024;-0.0325;544.0;14.72;-15.84;-32.49;259.09;-21.93;-4.34;2.0;55.87352;-4.292727;333.87;NaN;;53.64516;;0 / 20;31035;2022-03-22 10:35:03:029
0.6102;3.5886;9.0239;0.6405;3.674;9.0699;-0.0547;-0.0363;-0.055;0.0412;5.0E-4;0.006;544.0;14.72;-15.84;-32.49;259.09;-21.93;-4.34;2.0;55.87352;-4.292727;333.87;NaN;;53.64516;;0 / 20;31136;2022-03-22 10:35:03:130
0.7095;3.6485;9.1869;0.6262;3.6889;9.0648;0.0051;-0.0927;-0.1247;0.0064;-0.0298;0.0086;544.0;14.7;-15.66;-32.7;260.68;-22.1;-3.95;2.0;55.87352;-4.292727;333.87;NaN;;53.64516;;0 / 20;31236;2022-03-22 10:35:03:230
0.6305;3.6485;9.1642;0.6505;3.6723;9.0698;0.0864;-0.0179;0.0597;0.0064;-0.0298;0.0086;544.0;14.7;-15.66;-32.7;260.68;-22.1;-3.95;2.0;55.87352;-4.292727;333.87;NaN;;53.64516;;0 / 20;31335;2022-03-22 10:35:03:329
0.6185;3.9383;9.0562;0.667;3.6694;9.0698;0.0526;0.0587;-0.0079;0.0058;-0.0131;0.0345;544.0;14.03;-15.43;-33.0;263.16;-21.99;-4.1;2.0;55.87352;-4.292727;333.87;NaN;;53.64516;;0 / 20;31436;2022-03-22 10:35:03:430
0.6449;3.8785;9.0993;0.667;3.6694;9.0698;0.0526;0.0587;-0.0079;0.0035;0.0038;-0.0093;544.0;14.03;-15.43;-33.0;263.16;-21.99;-4.1;2.0;55.87352;-4.292727;333.87;NaN;;53.64516;;0 / 20;31535;2022-03-22 10:35:03:529
0.7741;3.3589;9.2958;0.659;3.6911;9.0616;-0.0496;0.0531;0.2465;-0.0472;-0.0255;-0.0305;544.0;13.58;-14.83;-33.0;263.41;-22.11;-4.16;2.0;55.87352;-4.292727;333.87;NaN;;53.64516;;0 / 20;31635;2022-03-22 10:35:03:629
0.9586;3.9514;7.5218;0.6505;3.6702;9.0707;0.0353;-0.0816;-0.0249;-0.0472;-0.0255;-0.0305;544.0;13.58;-14.83;-33.0;263.41;-22.11;-4.16;2.0;55.87352;-4.292727;333.87;NaN;;53.64516;;0 / 20;31735;2022-03-22 10:35:03:729
1.8694;2.1153;10.1192;0.7274;3.2269;9.2319;-0.123;0.5065;-1.2925;-1.7412;0.1199;-0.3541;544.0;13.48;-14.27;-33.51;261.26;-19.21;-4.51;2.0;55.87352;-4.292727;333.87;NaN;;53.64516;;0 / 20;31836;2022-03-22 10:35:03:830
-0.7364;-0.577;11.5295;0.0679;1.0095;9.7543;0.634;0.3613;-0.1787;-1.6562;-0.0993;-1.029;544.0;13.48;-14.27;-33.51;261.26;-19.21;-4.51;2.0;55.87352;-4.292727;333.87;NaN;;53.64516;;0 / 20;31936;2022-03-22 10:35:03:930
-0.0972;-1.4007;9.9422;0.6064;0.0139;9.7879;-0.1756;0.0842;2.1853;0.0431;0.5157;1.1812;544.0;14.08;-7.29;-33.69;256.29;-5.91;-0.4;2.0;55.87352;-4.292727;333.87;NaN;;53.64516;;0 / 20;32036;2022-03-22 10:35:04:030
3.2019;-0.5901;11.939;0.6668;-0.4198;9.7749;-0.2098;-0.6785;-0.6017;0.0431;0.5157;1.1812;544.0;14.08;-7.29;-33.69;256.29;-5.91;-0.4;2.0;55.87352;-4.292727;333.87;NaN;;53.64516;;0 / 20;32135;2022-03-22 10:35:04:129
0.1014;0.8282;8.9055;0.6668;-0.4198;9.7749;-0.2098;-0.6785;-0.6017;1.0018;0.4594;0.0635;544.0;14.08;0.66;-33.07;268.69;2.45;-3.9;2.0;55.87352;-4.292727;333.87;NaN;;53.64516;;0 / 20;32235;2022-03-22 10:35:04:229
3.0138;4.2712;8.7906;0.6774;0.5765;9.7662;-1.0012;0.2427;-1.5425;0.6141;0.1677;0.5542;544.0;14.08;0.66;-33.07;268.69;2.45;-3.9;2.0;55.87352;-4.292727;333.87;NaN;;53.64516;;0 / 20;32335;2022-03-22 10:35:04:329
1.1859;1.9128;10.4294;1.1209;1.6881;9.595;1.5778;2.6312;-0.5375;0.62;0.2104;-0.1895;544.0;12.13;3.15;-33.13;297.96;-9.91;-6.66;2.0;55.87352;-4.292727;333.87;NaN;;53.64516;;0 / 20;32436;2022-03-22 10:35:04:430
-0.0876;2.8765;8.9019;0.7347;2.3163;9.5008;-0.1466;-0.3664;1.5046;0.62;0.2104;-0.1895;544.0;12.13;3.15;-33.13;297.96;-9.91;-6.66;2.0;55.87352;-4.292727;333.87;NaN;;53.64516;;0 / 20;32536;2022-03-22 10:35:04:530
1.162;4.2867;9.425;0.6699;3.547;9.1181;-0.678;-0.7486;0.4396;0.9402;0.0379;0.341;630.0;10.93;-2.62;-33.68;304.28;-21.2;-4.2;2.0;55.87352;-4.292727;333.87;NaN;;53.64516;;0 / 20;32635;2022-03-22 10:35:04:629
0.3123;3.1842;8.7332;0.833;4.3365;8.7562;0.0142;-1.2867;1.3675;1.2269;-0.1997;-0.226;630.0;10.93;-2.62;-33.68;304.28;-21.2;-4.2;2.0;55.87352;-4.292727;333.87;NaN;;53.64516;;0 / 20;32735;2022-03-22 10:35:04:729
0.652;4.5081;7.5529;0.9434;5.3118;8.1893;-0.7264;-1.1135;-0.9134;0.6884;-0.0802;-0.0747;570.0;9.06;-10.69;-34.5;291.2;-26.24;-5.43;2.0;55.87352;-4.292727;333.87;NaN;;53.64516;;0 / 20;32835;2022-03-22 10:35:04:829
0.8198;5.8199;7.1052;0.9201;5.9642;7.7299;-0.1374;-0.226;-0.399;0.6884;-0.0802;-0.0747;570.0;9.06;-10.69;-34.5;291.2;-26.24;-5.43;2.0;55.87352;-4.292727;333.87;NaN;;53.64516;;0 / 20;32935;2022-03-22 10:35:04:929
0.9072;5.9889;7.2535;0.9201;5.9642;7.7299;-0.1374;-0.226;-0.399;0.2831;-0.0397;-0.2252;570.0;6.99;-18.36;-34.16;297.63;-37.46;-6.79;2.0;55.87352;-4.292727;333.87;NaN;;53.64516;;0 / 20;33035;2022-03-22 10:35:05:029
1.8215;6.5575;7.7288;0.8156;6.1967;7.5569;-0.0905;-0.3277;-0.4133;0.0602;-0.2236;-0.0761;570.0;6.99;-18.36;-34.16;297.63;-37.46;-6.79;2.0;55.87352;-4.292727;333.87;NaN;;53.64516;;0 / 20;33135;2022-03-22 10:35:05:129
1.2338;6.0775;7.5805;0.9834;6.2523;7.4908;0.1488;0.1307;0.1835;0.009;-0.0319;0.0211;570.0;4.78;-24.0;-33.36;281.93;-39.61;-7.48;2.0;55.87352;-4.292727;333.87;NaN;;53.64516;;0 / 20;33235;2022-03-22 10:35:05:229
1.4554;6.7382;8.5403;1.0222;6.2073;7.523;-0.2214;-0.338;0.0409;0.009;-0.0319;0.0211;570.0;4.78;-24.0;-33.36;281.93;-39.61;-7.48;2.0;55.87352;-4.292727;333.87;NaN;;53.64516;;0 / 20;33335;2022-03-22 10:35:05:329
1.1668;6.5982;8.0904;1.0819;6.1873;7.5311;0.23;0.2874;0.2909;0.038;-0.0593;-0.0107;570.0;3.53;-26.64;-32.93;265.39;-39.12;-8.17;2.0;55.87352;-4.292727;333.87;NaN;;53.64516;;0 / 20;33436;2022-03-22 10:35:05:430
0.9383;6.3132;8.8863;1.1102;6.1682;7.5426;0.0841;0.2471;0.2646;-0.0441;-0.0941;-0.1275;570.0;3.53;-26.64;-32.93;265.39;-39.12;-8.17;2.0;55.87352;-4.292727;333.87;NaN;;53.64516;;0 / 20;33536;2022-03-22 10:35:05:530
0.5527;6.4101;8.0234;1.0358;6.2111;7.5179;0.1127;0.1207;0.3711;0.0741;0.0052;-0.1965;451.0;2.72;-27.21;-33.11;264.64;-38.98;-8.37;2.0;55.87352;-4.292727;333.87;NaN;;53.64516;;0 / 20;33636;2022-03-22 10:35:05:630
0.3912;6.1672;8.1084;1.0358;6.2111;7.5179;0.1127;0.1207;0.3711;0.0741;0.0052;-0.1965;451.0;2.72;-27.21;-33.11;264.64;-38.98;-8.37;2.0;55.87352;-4.292727;333.87;NaN;;53.64516;;0 / 20;33735;2022-03-22 10:35:05:729
0.7346;6.1887;8.5753;0.8111;6.2944;7.4762;-0.3256;-0.1213;-0.2877;-0.0238;0.0632;-0.0308;451.0;2.19;-27.81;-33.73;270.87;-39.93;-6.19;2.0;55.87352;-4.292727;333.87;NaN;;53.64516;;0 / 20;33835;2022-03-22 10:35:05:829
0.6556;6.2904;7.4294;0.8691;6.293;7.4708;0.1562;0.1689;-0.5169;-0.1727;0.0163;0.0067;451.0;2.29;-28.07;-33.69;270.87;-39.93;-6.19;2.0;55.87352;-4.292727;333.87;NaN;;53.64516;;0 / 20;33936;2022-03-22 10:35:05:930
0.7836;6.5025;6.9808;0.8222;6.1707;7.5774;-0.3493;-0.1314;-0.2949;0.1107;-0.4218;0.2992;451.0;2.29;-28.07;-33.69;270.87;-39.93;-6.19;2.0;55.87352;-4.292727;333.87;NaN;;53.64516;;0 / 20;34035;2022-03-22 10:35:06:029
0.8198;6.6257;6.8477;1.1299;6.2279;7.4905;-0.4208;0.0331;-0.7363;0.1107;-0.4218;0.2992;451.0;1.82;-28.14;-33.82;263.66;-38.99;-6.19;2.0;55.87352;-4.292727;333.87;NaN;;53.64516;;0 / 20;34135;2022-03-22 10:35:06:129
1.5308;6.8243;6.6849;1.2367;6.1839;7.5101;-0.4362;0.1091;-0.0936;0.0441;-0.0806;-0.0466;451.0;1.18;-28.31;-34.33;264.04;-39.09;-9.35;2.0;55.87352;-4.292727;333.87;NaN;;53.64516;;0 / 20;34235;2022-03-22 10:35:06:229
0.8737;6.2067;7.2966;1.1564;6.2474;7.4702;-0.0321;0.1001;0.5527;0.1297;0.1219;-0.0325;451.0;1.18;-28.31;-34.33;264.04;-39.09;-9.35;2.0;55.87352;-4.292727;333.87;NaN;;53.64516;;0 / 20;34336;2022-03-22 10:35:06:330
0.2151;6.0009;5.9489;1.0211;6.4764;7.2927;-0.4042;-0.5772;-0.8493;0.2446;0.0667;0.0922;451.0;0.36;-28.67;-34.14;259.66;-39.57;-8.8;2.0;55.87352;-4.292727;333.87;NaN;;53.64516;;0 / 20;34435;2022-03-22 10:35:06:429
0.7238;6.5635;5.7021;1.0211;6.4764;7.2927;-0.4042;-0.5772;-0.8493;0.2446;0.0667;0.0922;451.0;0.36;-28.67;-34.14;259.66;-39.57;-8.8;2.0;55.87352;-4.292727;333.87;NaN;;53.64516;;0 / 20;34535;2022-03-22 10:35:06:529
1.1536;6.6353;7.3828;1.0009;6.6764;7.113;-0.1615;-0.2464;-1.6297;-0.1767;-0.0363;0.0516;451.0;-0.13;-29.61;-34.28;281.31;-42.91;-8.01;2.0;55.87352;-4.292727;333.87;NaN;;53.64516;;0 / 20;34635;2022-03-22 10:35:06:629
1.7797;6.9284;7.4151;1.044;6.6143;7.1646;0.1016;-0.0641;-0.1877;-0.2616;0.0072;0.1687;469.0;-0.13;-29.61;-34.28;281.31;-42.91;-8.01;2.0;55.87352;-4.292727;333.87;NaN;;53.64516;;0 / 20;34735;2022-03-22 10:35:06:729
1.7079;6.9715;8.0856;1.1321;6.4513;7.2986;0.6646;0.3895;0.3494;0.0186;0.0286;0.0081;469.0;-0.22;-30.26;-33.99;264.61;-41.14;-8.82;2.0;55.87352;-4.292727;333.87;NaN;;53.64516;;0 / 20;34835;2022-03-22 10:35:06:829
0.8474;6.6353;7.1076;1.1435;6.3862;7.3539;0.3014;0.4068;0.3672;0.0186;0.0286;0.0081;469.0;-0.22;-30.26;-33.99;264.61;-41.14;-8.82;2.0;55.87352;-4.292727;333.87;NaN;;53.64516;;0 / 20;34935;2022-03-22 10:35:06:929
1.241;6.7143;7.4282;1.136;6.4015;7.3417;0.0207;0.2252;-0.0386;0.0024;-0.0304;0.0276;469.0;-0.3;-30.28;-34.35;261.32;-40.75;-8.8;2.0;55.87352;-4.292727;333.87;NaN;;53.64516;;0 / 20;35035;2022-03-22 10:35:07:029
1.6672;6.6724;7.3959;1.1166;6.3885;7.356;0.2016;0.0021;0.1274;0.0773;0.0325;-0.0185;469.0;-0.3;-30.28;-34.35;261.32;-40.75;-8.8;2.0;55.87352;-4.292727;333.87;NaN;;53.64516;;0 / 20;35136;2022-03-22 10:35:07:130
1.369;6.5815;6.8815;1.0823;6.4588;7.2995;0.2167;0.0104;-0.4748;-0.1046;0.0863;-0.0843;469.0;-0.19;-29.85;-33.94;260.41;-40.65;-8.63;2.0;55.87352;-4.292727;333.87;NaN;;53.64516;;0 / 20;35235;2022-03-22 10:35:07:229
0.7466;6.184;7.1662;1.0823;6.4588;7.2995;0.2167;0.0104;-0.4748;-0.1046;0.0863;-0.0843;469.0;-0.19;-29.85;-33.94;260.41;-40.65;-8.63;2.0;55.87352;-4.292727;333.87;NaN;;53.64516;;0 / 20;35335;2022-03-22 10:35:07:329
1.2876;6.2163;8.2651;0.9113;6.2863;7.4714;-0.2818;-0.1518;-0.1282;-0.1587;0.1639;0.0339;511.0;0.62;-29.47;-33.92;262.19;-39.87;-6.95;2.0;55.87352;-4.292727;333.87;NaN;;53.64516;;0 / 20;35435;2022-03-22 10:35:07:429
0.8306;6.4077;7.0884;0.8831;6.2097;7.5386;0.2593;0.3425;-0.0074;0.2547;-0.1868;-0.0142;511.0;0.62;-29.47;-33.92;262.19;-39.87;-6.95;2.0;55.87352;-4.292727;333.87;NaN;;53.64516;;0 / 20;35536;2022-03-22 10:35:07:530
0.9036;6.3814;7.7372;1.0076;6.4143;7.3493;-0.195;-0.0685;0.197;0.0263;-0.0666;-0.044;471.0;0.86;-29.42;-33.79;270.08;-40.85;-7.81;2.0;55.87352;-4.292727;333.87;NaN;;53.64516;;0 / 20;35635;2022-03-22 10:35:07:629
0.9311;6.4531;7.4417;1.0568;6.5337;7.2363;-0.0575;0.054;0.264;0.0263;-0.0666;-0.044;471.0;0.86;-29.42;-33.79;270.08;-40.85;-7.81;2.0;55.87352;-4.292727;333.87;NaN;;53.64516;;0 / 20;35735;2022-03-22 10:35:07:729
0.894;6.4244;7.7276;0.9916;6.5162;7.2613;-0.0279;-0.066;0.1539;-0.0232;0.0709;-0.0325;471.0;1.2;-29.59;-34.2;268.72;-41.64;-7.78;2.0;55.87352;-4.292727;333.87;NaN;;53.64516;;0 / 20;35836;2022-03-22 10:35:07:830
0.9;6.5874;7.0657;0.9369;6.474;7.3062;0.0042;-0.0635;0.039;0.1121;9.0E-4;-0.0063;471.0;1.2;-29.59;-34.2;268.72;-41.64;-7.78;2.0;55.87352;-4.292727;333.87;NaN;;53.64516;;0 / 20;35936;2022-03-22 10:35:07:930
0.9335;6.6844;7.0837;0.9502;6.5434;7.2423;0.1603;0.0927;0.07;0.0825;0.0163;-0.0076;471.0;0.62;-30.34;-33.92;266.19;-41.31;-7.31;2.0;55.87352;-4.292727;333.87;NaN;;53.64516;;0 / 20;36036;2022-03-22 10:35:08:030
0.8028;6.6808;7.22;0.9502;6.5434;7.2423;0.1603;0.0927;0.07;0.0825;0.0163;-0.0076;471.0;0.62;-30.34;-33.92;266.19;-41.31;-7.31;2.0;55.87352;-4.292727;333.87;NaN;;53.64516;;0 / 20;36135;2022-03-22 10:35:08:129
0.6556;6.4663;7.2547;0.946;6.608;7.184;0.1584;0.0873;0.1109;0.0374;-0.0043;-0.0174;471.0;0.56;-30.62;-33.56;267.05;-42.36;-7.5;2.0;55.87352;-4.292727;333.87;NaN;;53.64516;;0 / 20;36236;2022-03-22 10:35:08:230
0.906;6.737;7.1435;0.9132;6.6076;7.1886;-0.1012;-0.0955;-0.0633;0.0177;-0.0423;-0.0012;471.0;0.56;-30.62;-33.56;267.05;-42.36;-7.5;2.0;55.87352;-4.292727;333.87;NaN;;53.64516;;0 / 20;36336;2022-03-22 10:35:08:330
1.0663;6.7956;7.244;0.9311;6.5874;7.2048;0.0142;0.0874;0.0141;0.0177;-0.0423;-0.0012;471.0;0.23;-30.67;-33.32;256.95;-42.2;-7.36;2.0;55.87352;-4.292727;333.87;NaN;;53.64516;;0 / 20;36435;2022-03-22 10:35:08:429
1.1572;6.725;7.3445;0.8898;6.5343;7.2582;-0.0269;0.0907;0.0402;-0.0806;0.0362;-0.0096;471.0;0.23;-30.67;-33.32;256.95;-42.2;-7.36;2.0;55.87352;-4.292727;333.87;NaN;;53.64516;;0 / 20;36535;2022-03-22 10:35:08:529
1.0866;6.7872;7.4501;0.8582;6.493;7.2989;0.077;0.0157;-0.1189;-0.106;0.1147;0.0108;471.0;0.24;-30.67;-33.43;252.17;-41.78;-6.99;2.0;55.87352;-4.292727;333.87;NaN;;53.64516;;0 / 20;36636;2022-03-22 10:35:08:630
0.9407;6.4854;7.6367;0.8776;6.4719;7.3154;0.0016;0.0196;-0.0223;-0.0015;-0.042;-0.0118;471.0;0.24;-30.67;-33.43;252.17;-41.78;-6.99;2.0;55.87352;-4.292727;333.87;NaN;;53.64516;;0 / 20;36736;2022-03-22 10:35:08:730
0.3505;6.2797;7.0657;0.8776;6.4719;7.3154;0.0016;0.0196;-0.0223;0.0166;0.0011;0.0534;471.0;0.88;-30.39;-33.68;266.15;-41.3;-6.84;2.0;55.87352;-4.292727;333.87;NaN;;53.64516;;0 / 20;36836;2022-03-22 10:35:08:830
1.0316;6.67;7.7468;0.8293;6.4909;7.3042;-0.1561;-0.1579;-0.0644;0.0166;0.0011;0.0534;471.0;0.88;-30.39;-33.68;266.15;-41.3;-6.84;2.0;55.87352;-4.292727;333.87;NaN;;53.64516;;0 / 20;36935;2022-03-22 10:35:08:929
0.5707;6.5061;7.2224;0.8771;6.4469;7.3375;0.1326;0.1636;0.2058;0.0238;-0.0174;-0.0409;471.0;1.33;-29.94;-33.81;264.43;-41.1;-6.82;2.0;55.87352;-4.292727;333.87;NaN;;53.64516;;0 / 20;37036;2022-03-22 10:35:09:030
0.6485;6.5563;7.4306;0.855;6.4284;7.3563;0.0335;0.0635;0.2795;0.0292;-0.0119;0.013;471.0;1.33;-29.94;-33.81;264.43;-41.1;-6.82;2.0;55.87352;-4.292727;333.87;NaN;;53.64516;;0 / 20;37135;2022-03-22 10:35:09:129
0.8474;6.4436;7.9179;0.8431;6.4064;7.3769;0.1445;0.0062;0.2663;0.1941;0.0076;-0.031;471.0;1.59;-29.61;-33.98;262.26;-40.79;-6.52;2.0;55.87352;-4.292727;333.87;NaN;;53.64516;;0 / 20;37237;2022-03-22 10:35:09:231
0.9096;6.4878;6.874;0.7921;6.53;7.2734;0.0755;-0.1784;-0.5643;0.1941;0.0076;-0.031;471.0;1.59;-29.61;-33.98;262.26;-40.79;-6.52;2.0;55.87352;-4.292727;333.87;NaN;;53.64516;;0 / 20;37335;2022-03-22 10:35:09:329
0.8557;6.4831;7.6367;0.8187;6.469;7.3247;0.1244;0.0177;0.0544;-0.0293;-0.0139;0.0159;471.0;1.44;-29.89;-33.69;270.65;-41.75;-6.22;2.0;55.87352;-4.292727;333.87;NaN;;53.64516;;0 / 20;37435;2022-03-22 10:35:09:429
1.1489;6.6078;7.5182;0.876;6.4432;7.3409;0.2277;0.1463;0.0929;0.0363;-0.0351;0.0443;471.0;1.44;-29.89;-33.69;270.65;-41.75;-6.22;2.0;55.87352;-4.292727;333.87;NaN;;53.64516;;0 / 20;37536;2022-03-22 10:35:09:530
0.5958;6.4173;7.2368;0.876;6.4432;7.3409;0.2277;0.1463;0.0929;0.0325;-0.0099;-0.0735;471.0;1.41;-29.72;-33.21;256.63;-41.07;-6.81;2.0;55.87352;-4.292727;333.87;NaN;;53.64516;;0 / 20;37635;2022-03-22 10:35:09:629
0.7406;6.6221;7.4429;0.9055;6.4645;7.3185;0.149;0.0538;0.0834;0.0325;-0.0099;-0.0735;471.0;1.41;-29.72;-33.21;256.63;-41.07;-6.81;2.0;55.87352;-4.292727;333.87;NaN;;53.64516;;0 / 20;37735;2022-03-22 10:35:09:729
1.1907;6.6114;7.3193;0.8567;6.4569;7.3311;-0.0449;0.1087;0.1838;0.0137;-0.0163;0.0208;471.0;1.48;-29.68;-33.23;257.43;-41.18;-6.67;2.0;55.87352;-4.292727;333.87;NaN;;53.64516;;0 / 20;37836;2022-03-22 10:35:09:830
0.8797;6.5815;7.2332;0.8975;6.4782;7.3074;0.2974;0.062;0.1204;0.0719;-0.0304;-0.0437;471.0;1.48;-29.68;-33.23;257.43;-41.18;-6.67;2.0;55.87352;-4.292727;333.87;NaN;;53.64516;;0 / 20;37935;2022-03-22 10:35:09:929
0.6054;6.4902;7.7539;0.8931;6.5258;7.2655;0.0063;-0.0052;-0.11;-0.0115;-0.0076;-0.0133;471.0;1.43;-29.59;-33.41;262.29;-41.72;-7.01;2.0;55.87352;-4.292727;333.87;NaN;;53.64516;;0 / 20;38036;2022-03-22 10:35:10:030
0.6652;6.5659;7.3792;0.8539;6.4503;7.3372;-0.0942;0.0502;0.2415;-0.0115;-0.0076;-0.0133;471.0;1.43;-29.59;-33.41;262.29;-41.72;-7.01;2.0;55.87352;-4.292727;333.87;NaN;;53.64516;;0 / 20;38136;2022-03-22 10:35:10:130
0.8773;6.4977;7.3301;0.8303;6.539;7.261;-0.109;-0.131;-0.3784;0.1292;0.0084;-0.0108;471.0;1.03;-29.87;-33.73;264.67;-41.13;-6.64;2.0;55.87352;-4.292727;333.87;NaN;;53.64516;;0 / 20;38235;2022-03-22 10:35:10:229
1.0866;6.6138;7.541;0.8014;6.5052;7.2945;-0.1673;-0.1593;0.0528;-0.0195;-0.0014;0.0345;471.0;1.03;-29.87;-33.73;264.67;-41.13;-6.64;2.0;55.87352;-4.292727;333.87;NaN;;53.64516;;0 / 20;38335;2022-03-22 10:35:10:329
0.9766;6.5827;7.1339;0.8014;6.5052;7.2945;-0.1673;-0.1593;0.0528;0.0663;0.0122;0.0313;471.0;1.28;-30.3;-33.69;268.75;-41.56;-6.27;2.0;55.87352;-4.292727;333.87;NaN;;53.64516;;0 / 20;38440;2022-03-22 10:35:10:434
0.4594;6.4005;7.2918;0.7839;6.4717;7.3261;-0.0588;-0.0859;-0.0191;0.0663;0.0122;0.0313;471.0;1.28;-30.3;-33.69;268.75;-41.56;-6.27;2.0;55.87352;-4.292727;333.87;NaN;;53.64516;;0 / 20;38535;2022-03-22 10:35:10:529
0.5647;6.4496;7.6869;0.7804;6.4902;7.3102;-0.2161;-0.0691;-0.0998;-0.0695;0.0084;0.0018;471.0;1.71;-30.43;-33.73;267.38;-41.44;-6.09;2.0;55.87352;-4.292727;333.87;NaN;;53.64516;;0 / 20;38635;2022-03-22 10:35:10:629
0.8198;6.5025;7.3516;0.758;6.395;7.3959;-0.0777;0.0557;0.3082;0.0571;0.0107;-0.0053;471.0;1.71;-30.43;-33.73;267.38;-41.44;-6.09;2.0;55.87352;-4.292727;333.87;NaN;;53.64516;;0 / 20;38735;2022-03-22 10:35:10:729
0.5707;6.4041;7.2846;0.7641;6.4291;7.3657;0.0353;0.058;-0.1385;0.0011;-0.0098;-0.0205;471.0;2.12;-30.22;-33.94;263.59;-40.96;-5.92;2.0;55.87352;-4.292727;333.87;NaN;;53.64516;;0 / 20;38835;2022-03-22 10:35:10:829
0.9802;6.615;7.724;0.7345;6.4404;7.3588;-0.1136;-0.0407;-0.0128;0.0011;-0.0098;-0.0205;471.0;2.12;-30.22;-33.94;263.59;-40.96;-5.92;2.0;55.87352;-4.292727;333.87;NaN;;53.64516;;0 / 20;38935;2022-03-22 10:35:10:929
0.9802;6.4675;7.6068;0.7609;6.4883;7.3139;0.0814;-0.1038;0.0656;0.0959;-9.0E-4;0.018;471.0;1.84;-29.74;-34.01;264.31;-41.05;-5.7;2.0;55.87352;-4.292727;333.87;NaN;;53.64516;;0 / 20;39036;2022-03-22 10:35:11:030
1.0184;6.8148;7.4859;0.7609;6.4883;7.3139;0.0814;-0.1038;0.0656;-0.0365;0.0631;0.0144;471.0;1.84;-29.74;-34.01;264.31;-41.05;-5.7;2.0;55.87352;-4.292727;333.87;NaN;;53.64516;;0 / 20;39136;2022-03-22 10:35:11:130
0.5037;6.518;7.2787;0.7516;6.5359;7.2724;0.1925;0.1737;0.1522;0.1129;0.0237;-0.0632;471.0;1.73;-29.42;-33.86;278.12;-41.8;-5.9;2.0;55.87352;-4.292727;333.87;NaN;;53.64516;;0 / 20;39235;2022-03-22 10:35:11:229
0.5192;6.5886;6.813;0.6615;6.6168;7.2077;0.0152;-0.0491;-0.1263;0.1129;0.0237;-0.0632;471.0;1.73;-29.42;-33.86;278.12;-41.8;-5.9;2.0;55.87352;-4.292727;333.87;NaN;;53.64516;;0 / 20;39336;2022-03-22 10:35:11:330
0.7729;6.5001;7.1471;0.6957;6.5701;7.2471;0.24;0.166;-0.003;-0.0877;-0.1406;0.0134;471.0;1.71;-30.0;-33.64;273.0;-42.06;-5.48;2.0;55.87352;-4.292727;333.87;NaN;;53.64516;;0 / 20;39436;2022-03-22 10:35:11:430
1.4973;6.7777;7.2129;0.8524;6.5131;7.2817;0.1865;0.0402;0.0228;-0.0849;-0.0941;-0.0023;471.0;1.71;-30.0;-33.64;273.0;-42.06;-5.48;2.0;55.87352;-4.292727;333.87;NaN;;53.64516;;0 / 20;39536;2022-03-22 10:35:11:530
1.1489;6.6688;7.5326;0.9931;6.4516;7.3185;0.0597;0.0322;-0.0997;-0.1191;-0.1342;-0.0235;471.0;1.48;-30.06;-33.34;257.85;-41.14;-7.73;2.0;55.87352;-4.292727;333.87;NaN;;53.64516;;0 / 20;39635;2022-03-22 10:35:11:629
0.8773;6.8327;7.6439;1.1219;6.3924;7.3518;-0.0089;0.1818;0.1236;-0.1191;-0.1342;-0.0235;471.0;1.48;-30.06;-33.34;257.85;-41.14;-7.73;2.0;55.87352;-4.292727;333.87;NaN;;53.64516;;0 / 20;39736;2022-03-22 10:35:11:730
0.8148;7.1237;7.6905;1.1544;6.4365;7.3082;-0.3317;0.3276;0.3615;-0.002;-0.1129;-0.0719;471.0;0.58;-29.81;-33.43;255.13;-40.68;-8.68;2.0;55.87352;-4.292727;333.87;NaN;;53.64516;;0 / 20;39835;2022-03-22 10:35:11:829
-0.0326;6.2773;8.0641;1.1544;6.4365;7.3082;-0.3317;0.3276;0.3615;0.0631;0.0562;-0.1232;444.0;0.58;-29.81;-33.43;255.13;-40.68;-8.68;2.0;55.87352;-4.292727;333.87;NaN;;53.64516;;0 / 20;39935;2022-03-22 10:35:11:929
0.3242;6.0583;7.4429;1.0332;6.5687;7.208;-0.906;-0.131;0.4859;0.2042;0.2355;0.0382;444.0;-0.34;-29.7;-33.73;273.18;-42.05;-8.16;2.0;55.87352;-4.292727;333.87;NaN;;53.64516;;0 / 20;40035;2022-03-22 10:35:12:029
0.7657;5.7697;6.3547;0.8344;6.6852;7.1261;-0.7489;-0.7756;0.3516;0.2042;0.2355;0.0382;444.0;-0.34;-29.7;-33.73;273.18;-42.05;-8.16;2.0;55.87352;-4.292727;333.87;NaN;;53.64516;;0 / 20;40136;2022-03-22 10:35:12:130
1.2793;6.0511;6.344;0.6617;6.8314;7.0046;0.0704;-1.1912;-0.3389;0.1578;0.2662;0.086;444.0;-0.08;-30.07;-33.41;293.71;-44.16;-5.4;2.0;55.87352;-4.292727;333.87;NaN;;53.64516;;0 / 20;40235;2022-03-22 10:35:12:229
1.7785;6.6544;6.9449;0.571;6.7614;7.0801;0.7031;-0.8329;-0.847;-0.3155;0.1031;0.108;444.0;0.56;-30.26;-33.32;293.71;-44.16;-5.4;2.0;55.87352;-4.292727;333.87;NaN;;53.64516;;0 / 20;40335;2022-03-22 10:35:12:329
2.1066;7.0002;7.5553;0.6624;6.458;7.3503;1.2382;0.0975;-0.0968;-0.1594;-0.2185;0.0744;472.0;0.56;-30.26;-33.32;293.71;-44.16;-5.4;2.0;55.87352;-4.292727;333.87;NaN;;53.64516;;0 / 20;40435;2022-03-22 10:35:12:429
1.739;7.5676;8.4817;0.9179;6.298;7.4608;0.9584;0.789;-0.2608;-0.1594;-0.2185;0.0744;472.0;1.46;-30.09;-33.04;255.93;-41.19;-5.15;2.0;55.87352;-4.292727;333.87;NaN;;53.64516;;0 / 20;40535;2022-03-22 10:35:12:529
0.1181;6.4352;8.6172;1.1244;6.1927;7.5204;-0.5097;0.7029;0.7189;-0.1014;-0.3128;-0.1303;472.0;1.86;-29.36;-33.07;257.34;-39.96;-7.01;2.0;55.87352;-4.292727;333.87;NaN;;53.64516;;0 / 20;40635;2022-03-22 10:35:12:629
-0.2145;5.6213;7.7444;1.1244;6.1927;7.5204;-0.5097;0.7029;0.7189;0.0991;-0.0721;-0.108;451.0;1.86;-29.36;-33.07;257.34;-39.96;-7.01;2.0;55.87352;-4.292727;333.87;NaN;;53.64516;;0 / 20;40735;2022-03-22 10:35:12:729
1.0065;6.178;7.5446;1.0993;6.2864;7.446;-1.3995;-0.8108;0.0471;0.0078;0.0496;0.0122;451.0;0.81;-28.52;-34.09;262.44;-39.87;-8.4;2.0;55.87352;-4.292727;333.87;NaN;;53.64516;;0 / 20;40836;2022-03-22 10:35:12:830
1.2063;6.2892;8.8193;1.0795;6.3211;7.4195;-0.0978;-0.3206;0.3697;0.0078;0.0496;0.0122;451.0;0.81;-28.52;-34.09;262.44;-39.87;-8.4;2.0;55.87352;-4.292727;333.87;NaN;;53.64516;;0 / 20;40936;2022-03-22 10:35:12:930
1.2936;6.6209;8.2591;0.9707;6.3019;7.4508;0.2427;-0.1155;1.3277;0.1532;0.1729;0.0411;451.0;-0.13;-28.18;-34.5;272.77;-39.99;-7.42;2.0;55.87352;-4.292727;333.87;NaN;;53.64516;;0 / 20;41036;2022-03-22 10:35:13:030
1.0424;6.7944;8.0318;0.9861;6.3769;7.3847;0.1992;-0.038;0.3315;-0.0246;-0.3097;-0.0371;451.0;-0.13;-28.18;-34.5;272.77;-39.99;-7.42;2.0;55.87352;-4.292727;333.87;NaN;;53.64516;;0 / 20;41135;2022-03-22 10:35:13:129
1.5296;6.5109;7.1291;1.1856;6.394;7.3404;0.5962;0.1972;-0.1377;-0.0594;0.0388;-0.1324;413.0;-0.39;-28.91;-34.54;276.49;-40.56;-7.61;2.0;55.87352;-4.292727;333.87;NaN;;53.64516;;0 / 20;41235;2022-03-22 10:35:13:229
1.0256;6.4436;6.9413;1.1286;6.3934;7.3499;-0.1193;-0.1335;-0.4258;-0.0594;0.0388;-0.1324;413.0;-0.39;-28.91;-34.54;276.49;-40.56;-7.61;2.0;55.87352;-4.292727;333.87;NaN;;53.64516;;0 / 20;41336;2022-03-22 10:35:13:330
1.453;6.5898;6.7986;1.1286;6.3934;7.3499;-0.1193;-0.1335;-0.4258;0.1165;0.2214;0.0846;377.0;-0.54;-28.95;-34.14;270.25;-40.69;-8.73;2.0;55.87352;-4.292727;333.87;NaN;;53.64516;;0 / 20;41436;2022-03-22 10:35:13:430
0.3912;6.7131;5.6495;1.015;6.4894;7.282;0.4812;0.0081;-0.5501;0.0658;0.412;-0.0082;377.0;-0.54;-28.95;-34.14;270.25;-40.69;-8.73;2.0;55.87352;-4.292727;333.87;NaN;;53.64516;;0 / 20;41535;2022-03-22 10:35:13:529
-0.0182;6.6891;5.6267;0.6131;6.5811;7.2446;-0.0353;-0.4566;-0.6283;0.0463;0.5107;0.0367;377.0;-0.06;-29.34;-33.92;293.31;-42.15;-4.84;2.0;55.87352;-4.292727;333.87;NaN;;53.64516;;0 / 20;41636;2022-03-22 10:35:13:630
-0.0781;6.8339;5.4066;0.3002;6.6619;7.1903;0.1197;-0.2913;-1.5008;0.0463;0.5107;0.0367;338.0;-0.06;-29.34;-33.92;293.31;-42.15;-4.84;2.0;55.87352;-4.292727;333.87;NaN;;53.64516;;0 / 20;41735;2022-03-22 10:35:13:729
0.1445;6.9918;6.3763;0.1245;6.7522;7.1107;-0.1436;-0.0944;-2.4679;-0.3354;0.0417;-0.015;338.0;2.03;-30.21;-33.64;302.08;-43.51;-1.0;2.0;55.87352;-4.292727;333.87;NaN;;53.64516;;0 / 20;41835;2022-03-22 10:35:13:829
0.3924;6.7226;5.3372;-0.0266;6.5037;7.3397;0.1168;0.3269;-0.8095;0.232;-0.1119;-0.0791;338.0;2.03;-30.21;-33.64;302.08;-43.51;-1.0;2.0;55.87352;-4.292727;333.87;NaN;;53.64516;;0 / 20;41935;2022-03-22 10:35:13:929
-0.0912;6.4627;5.8914;-0.0955;6.6606;7.1971;-0.0037;0.0711;-1.6516;-0.0964;0.2799;0.1477;389.0;4.41;-30.54;-33.79;260.57;-41.54;0.21;2.0;55.87352;-4.292727;333.87;NaN;;53.64516;;0 / 20;42036;2022-03-22 10:35:14:030
0.1205;6.4137;6.3882;-0.0714;6.568;7.2819;0.2536;0.1934;0.1904;-0.0964;0.2799;0.1477;389.0;5.68;-30.32;-33.62;260.57;-41.54;0.21;2.0;55.87352;-4.292727;333.87;NaN;;53.64516;;0 / 20;42135;2022-03-22 10:35:14:129
-1.5721;6.2139;8.8935;-0.0714;6.568;7.2819;0.2536;0.1934;0.1904;0.2213;-0.2107;-0.1359;389.0;5.68;-30.32;-33.62;260.57;-41.54;0.21;2.0;55.87352;-4.292727;333.87;NaN;;53.64516;;0 / 20;42236;2022-03-22 10:35:14:230
0.3673;6.4089;10.1815;-0.2001;6.674;7.1825;0.4887;-0.0408;-0.0473;-0.2126;-0.3002;0.1558;484.0;6.23;-29.87;-33.71;284.04;-42.89;1.6;2.0;55.87352;-4.292727;333.87;NaN;;53.64516;;0 / 20;42336;2022-03-22 10:35:14:330
0.8282;6.3239;9.2085;0.149;6.5405;7.3055;0.1911;0.0408;1.3917;-0.1012;-0.1924;0.0759;484.0;6.23;-29.63;-33.41;266.31;-41.83;-1.17;2.0;55.87352;-4.292727;333.87;NaN;;53.64516;;0 / 20;42435;2022-03-22 10:35:14:429
0.3673;6.1684;9.5315;0.3813;6.4331;7.3919;0.2634;-0.151;1.6721;-0.1012;-0.1924;0.0759;535.0;6.23;-29.63;-33.41;266.31;-41.83;-1.17;2.0;55.87352;-4.292727;333.87;NaN;;53.64516;;0 / 20;42535;2022-03-22 10:35:14:529
0.4738;6.1253;8.1168;0.5134;6.2874;7.5084;-0.0539;-0.2624;1.0318;-0.075;0.0547;0.1006;535.0;5.63;-28.97;-33.54;264.7;-39.88;-3.91;2.0;55.87352;-4.292727;333.87;NaN;;53.64516;;0 / 20;42635;2022-03-22 10:35:14:629
1.1381;6.5348;8.9079;0.6471;5.9848;7.7417;0.3954;0.4627;1.0913;-0.4281;-0.0921;0.0808;596.0;5.63;-28.97;-33.54;264.7;-39.88;-3.91;2.0;55.87352;-4.292727;333.87;NaN;;53.64516;;0 / 20;42735;2022-03-22 10:35:14:729
1.2278;5.7793;9.7029;0.9086;5.4507;8.1015;0.1474;0.5543;1.3064;-0.7724;-0.2734;0.1909;596.0;4.67;-27.67;-33.99;257.32;-37.61;-4.78;2.0;55.87352;-4.292727;333.87;NaN;;53.64516;;0 / 20;42835;2022-03-22 10:35:14:829
1.6828;5.085;10.3624;1.2496;4.8708;8.4193;0.6478;0.3284;1.3407;-0.7724;-0.2734;0.1909;723.0;4.67;-27.67;-33.99;257.32;-37.61;-4.78;2.0;55.87352;-4.292727;333.87;NaN;;53.64516;;0 / 20;42935;2022-03-22 10:35:14:929
0.6772;4.3693;8.6758;1.2496;4.8708;8.4193;0.6478;0.3284;1.3407;-0.1512;-0.1268;0.1176;723.0;2.98;-24.43;-35.42;244.57;-29.78;-8.44;2.0;55.87352;-4.292727;333.87;NaN;;53.64516;;0 / 20;43035;2022-03-22 10:35:15:029
0.5599;4.7163;7.2332;1.3703;4.7462;8.4715;-0.6562;-0.3635;-0.087;-0.3361;-0.0548;0.0887;723.0;2.98;-24.43;-35.42;244.57;-29.78;-8.44;2.0;55.87352;-4.292727;333.87;NaN;;53.64516;;0 / 20;43136;2022-03-22 10:35:15:130
0.5204;4.1453;9.0323;1.3496;4.5059;8.605;-0.347;-0.003;-0.7592;0.0444;0.0971;0.0087;723.0;1.22;-21.09;-36.58;253.99;-27.35;-8.91;2.0;55.87352;-4.292727;333.87;NaN;;53.64516;;0 / 20;43235;2022-03-22 10:35:15:229
0.7813;4.04;8.6351;1.1264;4.285;8.7487;0.3369;0.0416;0.2038;0.0444;0.0971;0.0087;723.0;1.22;-21.09;-36.58;253.99;-27.35;-8.91;2.0;55.87352;-4.292727;333.87;NaN;;53.64516;;0 / 20;43336;2022-03-22 10:35:15:330
1.046;4.3621;8.7787;0.9446;4.4974;8.6632;0.063;-0.4015;-0.1341;0.1504;0.1706;-0.0255;767.0;0.6;-18.79;-37.18;269.25;-27.3;-6.22;2.0;55.87352;-4.292727;333.87;NaN;;53.64516;;0 / 20;43436;2022-03-22 10:35:15:430
1.0603;4.4124;8.4003;0.8568;4.7098;8.5589;0.0993;-0.5191;0.2452;0.2228;0.0408;-0.0101;767.0;1.01;-18.68;-36.92;269.25;-27.3;-6.22;2.0;55.87352;-4.292727;333.87;NaN;;53.64516;;0 / 20;43535;2022-03-22 10:35:15:529
0.9179;4.4267;8.0892;0.8278;4.803;8.5098;0.0287;-0.4715;-0.2799;-0.0504;0.1318;0.0421;767.0;1.01;-18.68;-36.92;269.25;-27.3;-6.22;2.0;55.87352;-4.292727;333.87;NaN;;53.64516;;0 / 20;43635;2022-03-22 10:35:15:629
0.9012;5.0109;8.4171;0.7734;4.7186;8.5619;0.1457;-0.1481;0.4545;-0.0504;0.1318;0.0421;767.0;1.63;-18.71;-36.73;283.87;-29.33;-5.56;2.0;55.87352;-4.292727;333.87;NaN;;53.64516;;0 / 20;43735;2022-03-22 10:35:15:729
1.3283;5.5914;8.2029;0.7734;4.7186;8.5619;0.1457;-0.1481;0.4545;0.1558;0.1431;0.0192;767.0;2.21;-19.46;-36.66;280.52;-28.76;-5.16;2.0;55.87352;-4.292727;333.87;NaN;;53.64516;;0 / 20;43836;2022-03-22 10:35:15:830
0.8474;5.4969;7.5936;0.7168;4.8817;8.475;0.0988;0.0486;-0.0959;0.2214;0.1471;-0.0687;767.0;2.21;-19.46;-36.66;280.52;-28.76;-5.16;2.0;55.87352;-4.292727;333.87;NaN;;53.64516;;0 / 20;43935;2022-03-22 10:35:15:929
0.2776;5.4395;7.5326;0.5066;5.073;8.3773;-0.0067;0.1465;-0.2804;0.3583;0.1588;-0.1203;767.0;2.78;-21.32;-36.53;281.25;-31.15;-3.46;2.0;55.87352;-4.292727;333.87;NaN;;53.64516;;0 / 20;44035;2022-03-22 10:35:16:029
-0.102;5.365;7.8257;0.2571;5.3342;8.225;-0.2015;-0.2845;-0.0026;0.3583;0.1588;-0.1203;723.0;2.78;-21.32;-36.53;281.25;-31.15;-3.46;2.0;55.87352;-4.292727;333.87;NaN;;53.64516;;0 / 20;44136;2022-03-22 10:35:16:130
-0.0075;5.8786;7.7743;0.1421;5.6639;8.0044;-0.2162;-0.3476;-0.3003;0.3543;0.1281;0.0501;723.0;3.69;-23.31;-36.26;293.03;-35.28;-1.02;2.0;55.87352;-4.292727;333.87;NaN;;53.64516;;0 / 20;44235;2022-03-22 10:35:16:229
0.3111;6.3359;7.6379;0.1404;5.9834;7.7685;-0.0105;-0.0092;-0.295;0.3567;-0.0771;-0.036;602.0;3.69;-23.31;-36.26;293.03;-35.28;-1.02;2.0;55.87352;-4.292727;333.87;NaN;;53.64516;;0 / 20;44335;2022-03-22 10:35:16:329
0.3482;6.6999;7.2691;0.0789;6.2455;7.5603;-0.1399;-0.1636;0.1707;0.3665;0.0014;-0.0408;602.0;5.06;-26.14;-35.72;283.02;-37.6;-1.04;2.0;55.87352;-4.292727;333.87;NaN;;53.64516;;0 / 20;44436;2022-03-22 10:35:16:430
0.0153;6.7059;6.8946;0.0789;6.2455;7.5603;-0.1399;-0.1636;0.1707;0.3665;0.0014;-0.0408;602.0;5.06;-26.14;-35.72;283.02;-37.6;-1.04;2.0;55.87352;-4.292727;333.87;NaN;;53.64516;;0 / 20;44535;2022-03-22 10:35:16:529
-0.338;6.7753;6.3272;0.0193;6.5404;7.3071;-0.2569;-0.1507;-0.4321;0.3183;0.0111;-0.0334;516.0;5.61;-29.1;-34.87;285.8;-41.83;-0.15;2.0;55.87352;-4.292727;333.87;NaN;;53.64516;;0 / 20;44635;2022-03-22 10:35:16:629
-0.4696;6.4962;5.4748;-0.0537;6.7939;7.0718;-0.2614;-0.1865;-0.5151;0.2732;0.0768;-0.0809;516.0;5.61;-29.1;-34.87;285.8;-41.83;-0.15;2.0;55.87352;-4.292727;333.87;NaN;;53.64516;;0 / 20;44735;2022-03-22 10:35:16:729
-0.6108;6.4364;5.7368;-0.163;6.993;6.8732;-0.2772;-0.5128;-1.4049;0.0029;0.0081;0.022;489.0;6.49;-31.86;-33.96;290.15;-45.49;1.36;2.0;55.87352;-4.292727;333.87;NaN;;53.64516;;0 / 20;44835;2022-03-22 10:35:16:829
-0.0517;6.883;5.9632;-0.1807;7.0091;6.8564;-0.3862;-0.5154;-1.3981;0.0029;0.0081;0.022;489.0;6.49;-31.86;-33.96;290.15;-45.49;1.36;2.0;55.87352;-4.292727;333.87;NaN;;53.64516;;0 / 20;44935;2022-03-22 10:35:16:929
-0.3751;6.5276;6.1929;-0.1467;6.8948;6.9721;-0.0458;-0.1579;-1.3025;-0.215;-0.0053;-0.0063;489.0;6.86;-33.26;-32.7;268.48;-44.67;1.21;2.0;55.87352;-4.292727;333.87;NaN;;53.64516;;0 / 20;45035;2022-03-22 10:35:17:029
0.5085;7.0158;5.6291;-0.1774;6.6883;7.1698;0.4125;-0.0431;-0.1076;-0.0519;0.1324;-0.04;522.0;6.86;-33.26;-32.7;268.48;-44.67;1.21;2.0;55.87352;-4.292727;333.87;NaN;;53.64516;;0 / 20;45137;2022-03-22 10:35:17:131
-0.1391;6.6855;6.0876;-0.398;6.6593;7.1879;0.0171;-0.2522;-0.8868;-0.005;0.0583;-0.2275;522.0;7.73;-33.17;-32.29;253.16;-43.0;1.42;2.0;55.87352;-4.292727;333.87;NaN;;53.64516;;0 / 20;45235;2022-03-22 10:35:17:229
-0.8441;6.2928;7.1291;-0.398;6.6593;7.1879;0.0171;-0.2522;-0.8868;-0.005;0.0583;-0.2275;522.0;7.73;-33.17;-32.29;253.16;-43.0;1.42;2.0;55.87352;-4.292727;333.87;NaN;;53.64516;;0 / 20;45335;2022-03-22 10:35:17:329
-1.1291;6.1923;6.6885;-0.5246;6.5678;7.2636;-0.135;-0.1893;-0.2357;0.1414;-0.2367;-0.2927;478.0;8.16;-32.16;-32.38;250.57;-42.05;4.13;2.0;55.87352;-4.292727;333.87;NaN;;53.64516;;0 / 20;45435;2022-03-22 10:35:17:429
-0.6957;6.2833;7.7551;-0.5536;6.5944;7.2373;-0.2229;-0.3848;-0.7074;0.237;-0.3051;-0.2501;478.0;8.16;-32.16;-32.38;250.57;-42.05;4.13;2.0;55.87352;-4.292727;333.87;NaN;;53.64516;;0 / 20;45536;2022-03-22 10:35:17:530
-0.9341;6.5539;7.5111;-0.4808;6.7107;7.1348;-0.2924;-0.1722;-0.9886;0.1585;-0.2657;-0.2136;448.0;8.38;-31.16;-32.91;272.92;-43.18;3.86;2.0;55.87352;-4.292727;333.87;NaN;;53.64516;;0 / 20;45635;2022-03-22 10:35:17:629
0.3948;7.3235;11.0028;-0.3914;6.7086;7.1423;0.126;-0.1746;-0.3752;0.1585;-0.2657;-0.2136;448.0;8.38;-31.16;-32.91;272.92;-43.18;3.86;2.0;55.87352;-4.292727;333.87;NaN;;53.64516;;0 / 20;45736;2022-03-22 10:35:17:730
0.2859;7.4157;10.2245;-0.07;6.5343;7.3122;0.5165;0.8374;3.1034;-0.2921;-0.5123;0.0275;448.0;8.1;-30.45;-32.93;278.81;-43.16;3.14;2.0;55.87352;-4.292727;333.87;NaN;;53.64516;;0 / 20;45836;2022-03-22 10:35:17:830
0.6138;7.3128;9.6679;0.3599;6.4624;7.3674;0.3915;1.0637;2.3938;-0.011;-0.1874;0.2065;448.0;8.1;-30.45;-32.93;278.81;-43.16;3.14;2.0;55.87352;-4.292727;333.87;NaN;;53.64516;;0 / 20;45936;2022-03-22 10:35:17:930
0.5946;6.9224;7.7563;0.3599;6.4624;7.3674;0.3915;1.0637;2.3938;0.0838;0.0606;0.1828;448.0;6.58;-29.91;-33.41;262.91;-41.22;-2.8;2.0;55.87352;-4.292727;333.87;NaN;;53.64516;;0 / 20;46036;2022-03-22 10:35:18:030
-0.3224;6.1122;7.5386;0.5632;6.264;7.5243;0.2171;0.8236;1.8411;0.0838;0.0606;0.1828;448.0;6.58;-29.91;-33.41;262.91;-41.22;-2.8;2.0;55.87352;-4.292727;333.87;NaN;;53.64516;;0 / 20;46136;2022-03-22 10:35:18:130
0.6221;6.3838;7.2308;0.5723;6.3218;7.4751;-0.2004;0.2118;-0.3083;2.0E-4;0.0759;0.1878;448.0;4.73;-28.97;-33.77;265.76;-40.14;-4.38;2.0;55.87352;-4.292727;333.87;NaN;;53.64516;;0 / 20;46235;2022-03-22 10:35:18:229
0.3601;6.2043;7.2488;0.6107;6.3795;7.4229;0.2453;-0.0313;-0.2303;0.0964;0.0394;0.0438;448.0;4.73;-28.97;-33.77;265.76;-40.14;-4.38;2.0;55.87352;-4.292727;333.87;NaN;;53.64516;;0 / 20;46336;2022-03-22 10:35:18:330
0.8629;6.597;7.6893;0.5847;6.4477;7.3658;-0.0961;-0.2788;-0.1737;-0.0736;-0.0334;-0.0215;448.0;3.38;-29.01;-34.03;272.8;-41.11;-4.54;2.0;55.87352;-4.292727;333.87;NaN;;53.64516;;0 / 20;46436;2022-03-22 10:35:18:430
1.1357;6.8387;7.9789;0.5892;6.4117;7.3968;-0.033;0.02;0.2352;-0.0736;-0.0334;-0.0215;448.0;3.38;-29.01;-34.03;272.8;-41.11;-4.54;2.0;55.87352;-4.292727;333.87;NaN;;53.64516;;0 / 20;46535;2022-03-22 10:35:18:529
0.7107;6.4663;7.3947;0.6103;6.4102;7.3965;-0.1159;-0.029;-0.0634;0.0341;0.0238;0.0066;448.0;3.32;-29.36;-33.77;270.61;-40.83;-4.55;2.0;55.87352;-4.292727;333.87;NaN;;53.64516;;0 / 20;46637;2022-03-22 10:35:18:631
0.5264;6.5013;7.3983;0.65;6.4554;7.3537;0.0536;0.0869;-0.2994;-0.058;-0.0238;0.0018;448.0;3.32;-29.36;-33.77;270.61;-40.83;-4.55;2.0;55.87352;-4.292727;333.87;NaN;;53.64516;;0 / 20;46735;2022-03-22 10:35:18:729
0.4582;6.524;7.4175;0.65;6.4554;7.3537;0.0536;0.0869;-0.2994;0.0444;-0.0194;0.0174;448.0;3.32;-29.66;-33.66;265.57;-41.17;-5.05;2.0;55.87352;-4.292727;333.87;NaN;;53.64516;;0 / 20;46835;2022-03-22 10:35:18:829
0.4798;6.4639;7.4668;0.629;6.4189;7.3874;-0.147;0.0045;0.0703;0.0444;-0.0194;0.0174;448.0;3.32;-29.66;-33.66;265.57;-41.17;-5.05;2.0;55.87352;-4.292727;333.87;NaN;;53.64516;;0 / 20;46936;2022-03-22 10:35:18:930
0.3565;6.312;7.3684;0.6285;6.4238;7.3831;-0.0581;0.0145;-0.017;0.0162;-0.0064;-0.0286;448.0;3.15;-29.57;-33.96;263.75;-40.92;-4.87;2.0;55.87352;-4.292727;333.87;NaN;;53.64516;;0 / 20;47036;2022-03-22 10:35:19:030
0.597;6.4783;7.4163;0.612;6.4224;7.3857;-0.1575;-0.1291;-0.0113;0.0144;0.0127;-0.0307;448.0;3.15;-29.57;-33.96;263.75;-40.92;-4.87;2.0;55.87352;-4.292727;333.87;NaN;;53.64516;;0 / 20;47137;2022-03-22 10:35:19:131
0.6975;6.5336;7.3899;0.6069;6.42;7.3882;-0.0503;-0.0175;0.0181;-0.0049;0.0075;-0.0293;448.0;2.89;-29.51;-34.05;263.53;-40.89;-4.7;2.0;55.87352;-4.292727;333.87;NaN;;53.64516;;0 / 20;47235;2022-03-22 10:35:19:229
0.7609;6.3814;7.7384;0.586;6.4201;7.3898;-0.0484;-0.0142;0.0311;-0.0049;0.0075;-0.0293;448.0;2.89;-29.51;-34.05;263.53;-40.89;-4.7;2.0;55.87352;-4.292727;333.87;NaN;;53.64516;;0 / 20;47337;2022-03-22 10:35:19:331
0.5384;6.4196;7.311;0.5494;6.4235;7.3897;0.0778;-0.0181;-0.143;-0.0339;0.037;0.0087;448.0;2.91;-29.31;-33.96;271.13;-40.89;-4.53;2.0;55.87352;-4.292727;333.87;NaN;;53.64516;;0 / 20;47435;2022-03-22 10:35:19:429
0.4965;6.4699;7.657;0.5659;6.3856;7.4212;-0.0264;0.034;0.1603;-0.022;-0.0139;-0.016;448.0;2.91;-29.31;-33.96;271.13;-40.89;-4.53;2.0;55.87352;-4.292727;333.87;NaN;;53.64516;;0 / 20;47539;2022-03-22 10:35:19:533
0.4451;6.5073;7.5697;0.5659;6.3856;7.4212;-0.0264;0.034;0.1603;0.0035;9.0E-4;0.0354;448.0;2.96;-29.23;-33.94;269.15;-40.63;-4.36;2.0;55.87352;-4.292727;333.87;NaN;;53.64516;;0 / 20;47636;2022-03-22 10:35:19:630
0.737;6.6078;7.4381;0.5875;6.4065;7.4015;-0.1481;0.0254;-0.0559;0.0035;9.0E-4;0.0354;448.0;3.15;-29.34;-33.92;269.15;-40.63;-4.36;2.0;55.87352;-4.292727;333.87;NaN;;53.64516;;0 / 20;47736;2022-03-22 10:35:19:730
0.5133;6.434;7.6307;0.5934;6.4345;7.3767;-0.0087;-0.0111;-0.122;-0.0507;-0.0147;0.0061;448.0;3.15;-29.34;-33.92;269.15;-40.63;-4.36;2.0;55.87352;-4.292727;333.87;NaN;;53.64516;;0 / 20;47835;2022-03-22 10:35:19:829
0.7143;6.4675;7.3911;0.605;6.3968;7.4085;0.1507;-0.0695;0.0662;-0.0446;0.006;0.0078;448.0;2.98;-29.4;-33.88;271.95;-41.01;-4.6;2.0;55.87352;-4.292727;333.87;NaN;;53.64516;;0 / 20;47935;2022-03-22 10:35:19:929
0.7753;6.4819;7.9035;0.6105;6.3785;7.4237;0.0916;0.018;0.0499;-0.0646;-0.0287;0.0;448.0;3.06;-29.66;-33.68;261.08;-40.57;-4.7;2.0;55.87352;-4.292727;333.87;NaN;;53.64516;;0 / 20;48035;2022-03-22 10:35:20:029
1.04;6.5372;7.6558;0.6301;6.3567;7.4408;0.092;0.0622;0.2663;-0.0646;-0.0287;0.0;448.0;3.06;-29.66;-33.68;261.08;-40.57;-4.7;2.0;55.87352;-4.292727;333.87;NaN;;53.64516;;0 / 20;48135;2022-03-22 10:35:20:129
2.0169;6.6532;6.8453;0.6532;6.3162;7.4732;0.3773;-0.0029;0.2219;-0.0647;-0.0289;-0.017;448.0;3.06;-29.21;-33.45;260.83;-40.41;-4.84;2.0;55.87352;-4.292727;333.87;NaN;;53.64516;;0 / 20;48235;2022-03-22 10:35:20:229
0.5946;6.664;7.9011;0.6532;6.3162;7.4732;0.3773;-0.0029;0.2219;-0.1368;-0.1984;-0.1477;448.0;3.06;-29.21;-33.45;260.83;-40.41;-4.84;2.0;55.87352;-4.292727;333.87;NaN;;53.64516;;0 / 20;48335;2022-03-22 10:35:20:329
-1.6714;6.6676;8.5693;0.8316;6.3353;7.4393;0.8547;0.0148;-0.824;-0.0035;-0.0014;-0.1141;448.0;2.61;-28.71;-33.79;265.57;-40.24;-6.38;2.0;55.87352;-4.292727;333.87;NaN;;53.64516;;0 / 20;48436;2022-03-22 10:35:20:430
-0.2228;4.4267;8.045;0.8169;6.1846;7.5666;-1.8459;0.6843;1.0368;-0.0035;-0.0014;-0.1141;448.0;2.61;-28.71;-33.79;265.57;-40.24;-6.38;2.0;55.87352;-4.292727;333.87;NaN;;53.64516;;0 / 20;48536;2022-03-22 10:35:20:530
3.1158;5.8116;5.8543;0.5646;6.2184;7.562;-1.2885;-1.3209;0.6126;0.2517;0.2579;0.1594;448.0;2.61;-27.92;-34.48;266.96;-39.35;-4.27;2.0;55.87352;-4.292727;333.87;NaN;;53.64516;;0 / 20;48636;2022-03-22 10:35:20:630
0.8916;8.6007;7.7061;0.6855;6.2987;7.4851;2.4608;-0.4563;-1.4421;-0.3094;-0.1245;0.0137;448.0;2.53;-27.9;-34.74;266.96;-39.35;-4.27;2.0;55.87352;-4.292727;333.87;NaN;;53.64516;;0 / 20;48736;2022-03-22 10:35:20:730
-2.1622;5.9348;9.3891;0.7831;6.0148;7.7058;-1.264;1.9849;0.9415;0.3274;0.0877;-0.104;507.0;2.53;-27.9;-34.74;266.96;-39.35;-4.27;2.0;55.87352;-4.292727;333.87;NaN;;53.64516;;0 / 20;48836;2022-03-22 10:35:20:830
0.3374;3.4427;7.1387;0.5526;6.1787;7.5953;-1.7745;-1.9238;0.264;0.3274;0.0877;-0.104;507.0;2.72;-27.54;-34.95;261.76;-37.83;-5.8;2.0;55.87352;-4.292727;333.87;NaN;;53.64516;;0 / 20;48936;2022-03-22 10:35:20:930
3.2222;6.4448;6.3739;0.6538;6.2227;7.5512;2.4395;-0.742;-1.5506;0.0377;0.0987;0.2327;507.0;3.26;-27.6;-34.69;271.17;-39.05;-4.16;2.0;55.87352;-4.292727;333.87;NaN;;53.64516;;0 / 20;49036;2022-03-22 10:35:21:030
-0.4935;9.0269;8.3441;0.6538;6.2227;7.5512;2.4395;-0.742;-1.5506;-0.1177;-0.1727;-0.2167;507.0;3.26;-27.6;-34.69;271.17;-39.05;-4.16;2.0;55.87352;-4.292727;333.87;NaN;;53.64516;;0 / 20;49135;2022-03-22 10:35:21:129
-1.8209;3.7229;8.9294;0.8401;6.0995;7.6329;-1.246;2.7572;0.5944;0.2585;0.2601;0.2214;507.0;3.26;-27.17;-34.29;267.21;-38.46;-6.28;2.0;55.87352;-4.292727;333.87;NaN;;53.64516;;0 / 20;49235;2022-03-22 10:35:21:229
3.2557;5.412;5.7981;0.5854;6.1374;7.6263;-1.3234;-2.8555;0.7979;0.2585;0.2601;0.2214;507.0;3.26;-27.17;-34.29;267.21;-38.46;-6.28;2.0;55.87352;-4.292727;333.87;NaN;;53.64516;;0 / 20;49336;2022-03-22 10:35:21:330
1.3702;8.6892;7.2272;0.796;6.1711;7.5799;2.8911;1.303;-1.4536;-0.2002;-0.2118;0.0073;507.0;3.24;-27.49;-34.11;270.85;-39.0;-5.99;2.0;55.87352;-4.292727;333.87;NaN;;53.64516;;0 / 20;49436;2022-03-22 10:35:21:430
-2.4338;5.2525;9.9039;0.8163;6.0437;7.6797;-2.4695;1.1487;0.8269;0.0254;0.1257;-0.1396;506.0;3.06;-27.26;-34.18;270.85;-39.0;-5.99;2.0;55.87352;-4.292727;333.87;NaN;;53.64516;;0 / 20;49535;2022-03-22 10:35:21:529
1.9642;3.9598;7.0274;0.6593;6.1595;7.6024;0.3882;-2.5773;0.38;-0.0073;-0.0428;0.3383;506.0;3.06;-27.26;-34.18;270.85;-39.0;-5.99;2.0;55.87352;-4.292727;333.87;NaN;;53.64516;;0 / 20;49635;2022-03-22 10:35:21:629
-1.2081;6.8806;8.5825;0.9349;6.1294;7.5978;1.967;1.9801;-1.5098;-0.0073;-0.0428;0.3383;506.0;3.04;-27.3;-34.24;270.99;-38.91;-4.96;2.0;55.87352;-4.292727;333.87;NaN;;53.64516;;0 / 20;49736;2022-03-22 10:35:21:730
0.3206;3.6954;9.3437;0.8812;5.9821;7.7206;-2.315;-0.1393;1.1717;-0.1217;-0.1295;-0.2301;506.0;2.78;-27.21;-34.12;268.28;-38.68;-7.01;2.0;55.87352;-4.292727;333.87;NaN;;53.64516;;0 / 20;49835;2022-03-22 10:35:21:829
3.0341;7.6047;5.3635;0.8812;5.9821;7.7206;-2.315;-0.1393;1.1717;0.4209;0.1341;0.3207;506.0;2.78;-27.21;-34.12;268.28;-38.68;-7.01;2.0;55.87352;-4.292727;333.87;NaN;;53.64516;;0 / 20;49936;2022-03-22 10:35:21:930
-0.4887;7.1836;8.0701;0.8242;6.0766;7.6528;1.0634;-1.2918;-0.1599;-0.0819;-0.1828;-0.1399;506.0;2.81;-26.47;-34.18;272.94;-38.29;-6.15;2.0;55.87352;-4.292727;333.87;NaN;;53.64516;;0 / 20;50036;2022-03-22 10:35:22:030
0.2031;4.2843;9.2085;0.9692;6.0175;7.6825;0.4581;1.8018;-0.1296;-0.0819;-0.1828;-0.1399;506.0;2.81;-26.47;-34.18;272.94;-38.29;-6.15;2.0;55.87352;-4.292727;333.87;NaN;;53.64516;;0 / 20;50136;2022-03-22 10:35:22:130
2.5376;6.4723;5.7308;0.828;6.0048;7.7089;-1.2217;-1.3321;1.1158;0.2072;0.1523;0.0761;506.0;2.4;-26.4;-34.31;270.14;-37.76;-6.13;2.0;55.87352;-4.292727;333.87;NaN;;53.64516;;0 / 20;50236;2022-03-22 10:35:22:230
0.3613;7.2613;8.6554;0.9359;6.1257;7.6007;1.4649;0.1922;-1.7053;-0.2674;-0.1035;0.0185;506.0;2.4;-26.4;-34.31;270.14;-37.76;-6.13;2.0;55.87352;-4.292727;333.87;NaN;;53.64516;;0 / 20;50335;2022-03-22 10:35:22:329
0.4546;5.68;7.8114;0.9636;6.0216;7.68;-0.4985;0.9132;0.9279;0.1472;0.0841;-0.0249;506.0;2.18;-26.74;-34.43;268.52;-38.66;-7.02;2.0;55.87352;-4.292727;333.87;NaN;;53.64516;;0 / 20;50435;2022-03-22 10:35:22:429
1.5308;6.3084;7.5817;0.8738;6.145;7.5924;-0.0611;-0.6022;-0.4561;0.1472;0.0841;-0.0249;506.0;2.18;-26.74;-34.43;268.52;-38.66;-7.02;2.0;55.87352;-4.292727;333.87;NaN;;53.64516;;0 / 20;50535;2022-03-22 10:35:22:529
0.7633;6.2569;7.59;0.9213;6.1431;7.5884;0.1692;0.1072;-0.1158;0.0243;-0.0243;0.0327;506.0;2.27;-27.11;-34.44;269.81;-38.8;-6.57;2.0;55.87352;-4.292727;333.87;NaN;;53.64516;;0 / 20;50637;2022-03-22 10:35:22:631
0.5958;5.9686;7.8126;0.9213;6.1431;7.5884;0.1692;0.1072;-0.1158;0.0105;0.0044;0.0208;506.0;2.27;-27.11;-34.44;269.81;-38.8;-6.57;2.0;55.87352;-4.292727;333.87;NaN;;53.64516;;0 / 20;50736;2022-03-22 10:35:22:730
1.5057;6.5288;7.9358;0.888;6.1112;7.6181;-0.2348;-0.1988;0.2782;0.048;0.0651;-0.004;506.0;2.59;-26.94;-34.22;267.62;-38.55;-6.65;2.0;55.87352;-4.292727;333.87;NaN;;53.64516;;0 / 20;50835;2022-03-22 10:35:22:829
1.0735;6.0595;7.602;0.8928;6.1177;7.6123;0.4354;0.2637;0.1979;0.048;0.0651;-0.004;506.0;2.59;-26.94;-34.22;267.62;-38.55;-6.65;2.0;55.87352;-4.292727;333.87;NaN;;53.64516;;0 / 20;50935;2022-03-22 10:35:22:929
1.0448;5.9097;7.4991;0.8511;6.1212;7.6142;0.1625;-0.2244;-0.1358;0.0716;0.1199;-0.0305;506.0;2.98;-27.02;-34.09;268.21;-38.62;-6.38;2.0;55.87352;-4.292727;333.87;NaN;;53.64516;;0 / 20;51035;2022-03-22 10:35:23:029
1.1501;5.5364;6.903;0.8846;6.2918;7.47;0.6339;-0.33;0.3715;0.3772;0.0701;-0.2566;506.0;2.98;-27.02;-34.09;268.21;-38.62;-6.38;2.0;55.87352;-4.292727;333.87;NaN;;53.64516;;0 / 20;51135;2022-03-22 10:35:23:129
-0.4421;5.6405;7.7264;0.5955;6.59;7.2379;-0.5802;-0.7465;0.2245;0.1784;-0.0098;0.1321;445.0;3.51;-28.2;-33.84;269.16;-39.91;-6.75;2.0;55.87352;-4.292727;333.87;NaN;;53.64516;;0 / 20;51235;2022-03-22 10:35:23:229
0.1421;6.9021;9.7244;0.6776;6.5906;7.2302;0.3234;0.6911;1.6963;0.1784;-0.0098;0.1321;445.0;3.51;-28.2;-33.84;269.16;-39.91;-6.75;2.0;55.87352;-4.292727;333.87;NaN;;53.64516;;0 / 20;51335;2022-03-22 10:35:23:329
0.5743;7.7067;6.1953;0.6776;6.5906;7.2302;0.3234;0.6911;1.6963;0.511;-0.037;0.261;396.0;4.07;-30.11;-33.43;266.88;-42.23;-5.35;2.0;55.87352;-4.292727;333.87;NaN;;53.64516;;0 / 20;51435;2022-03-22 10:35:23:429
1.1752;8.0608;6.3799;0.8579;6.9122;6.9033;-0.1181;0.8232;-0.7524;-0.038;-0.0145;0.0371;396.0;4.07;-30.11;-33.43;266.88;-42.23;-5.35;2.0;55.87352;-4.292727;333.87;NaN;;53.64516;;0 / 20;51535;2022-03-22 10:35:23:529
0.5779;7.0576;5.7272;0.9243;6.9381;6.8687;-0.1209;0.8541;-0.6198;-0.193;0.1071;0.0438;396.0;3.88;-32.25;-32.34;266.14;-45.03;-7.66;2.0;55.87352;-4.292727;333.87;NaN;;53.64516;;0 / 20;51635;2022-03-22 10:35:23:629
0.731;7.1728;6.1654;0.8552;6.8736;6.9421;-0.5745;0.2391;-0.8466;-0.193;0.1071;0.0438;396.0;3.88;-32.25;-32.34;266.14;-45.03;-7.66;2.0;55.87352;-4.292727;333.87;NaN;;53.64516;;0 / 20;51736;2022-03-22 10:35:23:730
0.7143;7.2769;6.9401;0.8384;6.7781;7.0374;-0.4119;0.2526;-0.3232;-0.2327;0.1484;0.0906;396.0;3.41;-32.94;-31.71;252.51;-43.72;-6.79;2.0;55.87352;-4.292727;333.87;NaN;;53.64516;;0 / 20;51836;2022-03-22 10:35:23:830
0.4283;7.2302;8.0139;0.8237;6.4559;7.3357;-0.5915;0.2329;0.6311;-0.0107;0.0806;0.3208;396.0;3.41;-32.94;-31.71;252.51;-43.72;-6.79;2.0;55.87352;-4.292727;333.87;NaN;;53.64516;;0 / 20;51936;2022-03-22 10:35:23:930
0.7178;5.881;7.5386;0.7956;6.6213;7.1899;-0.2859;-0.1228;-1.05;-0.2115;0.1322;-0.0269;396.0;3.51;-32.29;-32.19;245.45;-41.17;-6.41;2.0;55.87352;-4.292727;333.87;NaN;;53.64516;;0 / 20;52036;2022-03-22 10:35:24:030
0.4199;5.6177;7.8736;0.5672;6.4373;7.3763;-0.4969;-0.7952;-0.1657;-0.2115;0.1322;-0.0269;433.0;3.51;-32.29;-32.19;245.45;-41.17;-6.41;2.0;55.87352;-4.292727;333.87;NaN;;53.64516;;0 / 20;52135;2022-03-22 10:35:24:129
0.3661;6.0655;7.0179;0.5672;6.4373;7.3763;-0.4969;-0.7952;-0.1657;-0.3587;0.1941;0.0953;433.0;4.54;-30.9;-32.98;254.81;-41.03;-4.4;2.0;55.87352;-4.292727;333.87;NaN;;53.64516;;0 / 20;52235;2022-03-22 10:35:24:229
1.1201;6.9129;8.441;0.4947;6.1746;7.6026;-0.4456;-0.6325;0.4594;-0.0655;-0.0379;0.2601;433.0;4.54;-30.9;-32.98;254.81;-41.03;-4.4;2.0;55.87352;-4.292727;333.87;NaN;;53.64516;;0 / 20;52335;2022-03-22 10:35:24:329
0.9718;6.1241;7.9896;0.6865;6.1797;7.5836;0.4187;0.745;0.2498;-0.1147;0.0455;-0.0713;466.0;5.63;-29.81;-33.49;251.91;-39.06;-5.17;2.0;55.87352;-4.292727;333.87;NaN;;53.64516;;0 / 20;52436;2022-03-22 10:35:24:430
0.2414;5.7745;7.4366;0.6291;6.0753;7.6724;0.0549;-0.0729;0.3156;-0.1147;0.0455;-0.0713;466.0;5.63;-29.81;-33.49;251.91;-39.06;-5.17;2.0;55.87352;-4.292727;333.87;NaN;;53.64516;;0 / 20;52535;2022-03-22 10:35:24:529
0.1636;6.1732;8.1754;0.5745;5.903;7.8099;-0.24;-0.0839;-0.3625;-0.276;-0.0411;-0.0104;504.0;5.87;-28.71;-33.98;250.44;-37.01;-4.21;2.0;55.87352;-4.292727;333.87;NaN;;53.64516;;0 / 20;52635;2022-03-22 10:35:24:629
0.906;6.2545;9.9015;0.5699;5.7011;7.9588;-0.0687;0.8695;0.0626;-0.2843;-0.146;-0.1555;504.0;5.87;-27.77;-34.2;250.44;-37.01;-4.21;2.0;55.87352;-4.292727;333.87;NaN;;53.64516;;0 / 20;52737;2022-03-22 10:35:24:731
1.0101;5.735;6.3476;0.362;5.4998;8.1112;-0.9663;-0.7815;0.6627;0.3647;0.0982;0.1524;504.0;5.87;-27.77;-34.2;250.44;-37.01;-4.21;2.0;55.87352;-4.292727;333.87;NaN;;53.64516;;0 / 20;52835;2022-03-22 10:35:24:829
0.4319;5.316;6.7244;0.362;5.4998;8.1112;-0.9663;-0.7815;0.6627;0.3647;0.0982;0.1524;505.0;5.98;-26.76;-34.41;245.29;-34.11;-2.56;2.0;55.87352;-4.292727;333.87;NaN;;53.64516;;0 / 20;52936;2022-03-22 10:35:24:930
1.0352;6.0464;10.2138;0.3977;5.6425;8.0109;-0.2009;-0.605;-1.4712;-0.2793;-0.3575;0.1078;505.0;6.08;-25.93;-34.54;260.29;-35.13;-2.84;2.0;55.87352;-4.292727;333.87;NaN;;53.64516;;0 / 20;53036;2022-03-22 10:35:25:030
0.5755;5.9674;8.1933;0.705;5.3536;8.1861;0.4096;0.7058;1.6874;0.1965;-0.068;-0.1495;539.0;6.08;-25.93;-34.54;260.29;-35.13;-2.84;2.0;55.87352;-4.292727;333.87;NaN;;53.64516;;0 / 20;53135;2022-03-22 10:35:25:129
-0.0135;4.6899;9.0706;0.6415;5.4012;8.16;-0.1;0.444;-0.0446;-0.4195;0.1084;-0.1121;539.0;6.17;-24.47;-35.06;262.99;-33.42;-4.5;2.0;55.87352;-4.292727;333.87;NaN;;53.64516;;0 / 20;53236;2022-03-22 10:35:25:230
0.5503;4.2915;9.3664;0.4657;4.9933;8.4274;-0.4359;-0.4673;0.0523;-0.4195;0.1084;-0.1121;580.0;6.17;-24.47;-35.06;262.99;-33.42;-4.5;2.0;55.87352;-4.292727;333.87;NaN;;53.64516;;0 / 20;53336;2022-03-22 10:35:25:330
-1.0645;4.3143;8.0988;0.3457;4.8385;8.5229;0.3583;-0.3176;0.2261;-0.1119;0.4507;0.0383;580.0;5.94;-22.78;-35.72;252.3;-29.56;-2.32;2.0;55.87352;-4.292727;333.87;NaN;;53.64516;;0 / 20;53436;2022-03-22 10:35:25:430
0.4152;5.2992;8.7823;0.0971;4.7288;8.5906;-0.3217;0.0038;-0.135;-0.0802;0.0967;0.3854;580.0;5.94;-22.78;-35.72;252.3;-29.56;-2.32;2.0;55.87352;-4.292727;333.87;NaN;;53.64516;;0 / 20;53535;2022-03-22 10:35:25:529
-0.2264;4.5511;8.1168;0.0802;4.7412;8.584;0.2309;0.1459;0.5679;0.434;0.1707;0.046;580.0;6.9;-20.96;-35.78;261.73;-28.83;-0.65;2.0;55.87352;-4.292727;333.87;NaN;;53.64516;;0 / 20;53636;2022-03-22 10:35:25:630
-0.0027;4.4841;7.5745;0.0802;4.7412;8.584;0.2309;0.1459;0.5679;0.434;0.1707;0.046;580.0;6.9;-20.96;-35.78;261.73;-28.83;-0.65;2.0;55.87352;-4.292727;333.87;NaN;;53.64516;;0 / 20;53736;2022-03-22 10:35:25:730
-0.1104;5.158;8.7655;-0.115;4.9861;8.4437;0.0784;-0.4888;-0.8063;-0.2324;0.0473;0.1304;580.0;8.19;-20.47;-35.79;278.6;-30.56;0.78;2.0;55.87352;-4.292727;333.87;NaN;;53.64516;;0 / 20;53836;2022-03-22 10:35:25:830
0.221;4.7222;8.8863;-0.082;4.7211;8.5951;-0.0795;0.2917;0.6059;0.0483;-0.0069;0.2416;645.0;8.19;-20.47;-35.79;278.6;-30.56;0.78;2.0;55.87352;-4.292727;333.87;NaN;;53.64516;;0 / 20;53935;2022-03-22 10:35:25:929
0.8414;5.2214;8.3704;0.0785;4.7052;8.6038;0.4336;-0.0291;-0.2019;-0.1758;-0.2396;-0.1124;645.0;8.85;-20.74;-35.89;262.71;-28.67;-0.52;2.0;55.87352;-4.292727;333.87;NaN;;53.64516;;0 / 20;54035;2022-03-22 10:35:26:029
0.0739;5.0539;10.5084;0.3087;4.604;8.6532;0.4502;1.0661;0.5519;-0.1758;-0.2396;-0.1124;750.0;8.85;-20.74;-35.89;262.71;-28.67;-0.52;2.0;55.87352;-4.292727;333.87;NaN;;53.64516;;0 / 20;54136;2022-03-22 10:35:26:130
0.6556;4.1345;8.4673;0.4289;4.8461;8.5148;0.1521;-0.546;0.7299;0.432;-0.202;-0.1982;750.0;8.78;-21.11;-36.28;266.22;-29.61;-2.88;2.0;55.87352;-4.292727;333.87;NaN;;53.64516;;0 / 20;54235;2022-03-22 10:35:26:229
0.8246;5.2753;9.9948;0.4945;4.7978;8.5386;-0.2477;-0.3767;0.4196;-0.1191;-0.1107;-0.0896;750.0;8.78;-21.11;-36.28;266.22;-29.61;-2.88;2.0;55.87352;-4.292727;333.87;NaN;;53.64516;;0 / 20;54335;2022-03-22 10:35:26:329
1.3128;5.7601;10.5407;0.5298;4.5949;8.6473;0.1477;0.7095;0.8415;-0.1665;-0.192;-0.031;790.0;7.11;-21.21;-36.47;264.15;-29.29;-3.31;2.0;55.87352;-4.292727;333.87;NaN;;53.64516;;0 / 20;54436;2022-03-22 10:35:26:430
-0.157;4.6409;8.0378;0.5298;4.5949;8.6473;0.1477;0.7095;0.8415;-0.1665;-0.192;-0.031;790.0;7.11;-21.21;-36.47;264.15;-29.29;-3.31;2.0;55.87352;-4.292727;333.87;NaN;;53.64516;;0 / 20;54535;2022-03-22 10:35:26:529
-0.3272;3.9957;9.2731;0.4618;4.5062;8.6978;-0.0713;0.3216;0.0044;-0.1301;0.0034;-0.1124;790.0;6.11;-20.57;-36.94;257.11;-27.36;-3.04;2.0;55.87352;-4.292727;333.87;NaN;;53.64516;;0 / 20;54635;2022-03-22 10:35:26:629
-0.0015;4.2099;7.8162;0.3498;4.2803;8.8163;-0.3004;-0.2031;-0.4151;0.2375;0.0102;-0.0913;844.0;6.11;-20.57;-36.94;257.11;-27.36;-3.04;2.0;55.87352;-4.292727;333.87;NaN;;53.64516;;0 / 20;54735;2022-03-22 10:35:26:729
0.4451;3.9311;9.0503;0.2723;4.4591;8.73;-0.229;-0.3724;-0.6921;0.15;-0.2905;-0.2227;844.0;5.36;-19.29;-37.5;268.35;-27.05;-1.79;2.0;55.87352;-4.292727;333.87;NaN;;53.64516;;0 / 20;54836;2022-03-22 10:35:26:830
0.4367;4.4758;9.3281;0.3435;4.6443;8.6304;0.0343;-0.6903;-0.0253;0.15;-0.2905;-0.2227;844.0;5.36;-19.29;-37.5;268.35;-27.05;-1.79;2.0;55.87352;-4.292727;333.87;NaN;;53.64516;;0 / 20;54936;2022-03-22 10:35:26:930
0.3876;4.6648;8.8851;0.159;4.6344;8.641;0.1593;-0.1295;0.1526;0.0913;0.1739;0.1237;844.0;5.55;-18.94;-37.84;278.6;-28.27;-2.28;2.0;55.87352;-4.292727;333.87;NaN;;53.64516;;0 / 20;55035;2022-03-22 10:35:27:029
-0.0529;4.8565;7.8915;0.2298;4.7175;8.5944;0.5865;0.1855;0.1489;0.1845;0.1055;0.1321;844.0;5.55;-18.94;-37.84;278.6;-28.27;-2.28;2.0;55.87352;-4.292727;333.87;NaN;;53.64516;;0 / 20;55135;2022-03-22 10:35:27:129
0.3972;5.0372;8.2184;0.2778;4.9665;8.4514;0.0751;-0.17;-0.6143;0.1446;0.0049;0.0284;844.0;5.64;-19.61;-37.41;271.49;-28.75;-1.53;2.0;55.87352;-4.292727;333.87;NaN;;53.64516;;0 / 20;55235;2022-03-22 10:35:27:229
0.2668;5.0827;8.4194;0.2778;4.9665;8.4514;0.0751;-0.17;-0.6143;0.1446;0.0049;0.0284;782.0;5.64;-19.61;-37.41;271.49;-28.75;-1.53;2.0;55.87352;-4.292727;333.87;NaN;;53.64516;;0 / 20;55335;2022-03-22 10:35:27:329
-0.1774;4.9104;8.2292;0.277;5.1048;8.3687;0.0548;-0.1087;-0.05;0.1452;0.0101;0.0144;782.0;5.81;-21.21;-37.14;279.56;-31.37;-1.9;2.0;55.87352;-4.292727;333.87;NaN;;53.64516;;0 / 20;55436;2022-03-22 10:35:27:430
-0.3153;4.9343;8.7165;0.2578;5.3275;8.2294;-0.3934;-0.3485;-0.0703;0.0812;-0.1043;0.0191;722.0;5.81;-21.21;-37.14;279.56;-31.37;-1.9;2.0;55.87352;-4.292727;333.87;NaN;;53.64516;;0 / 20;55536;2022-03-22 10:35:27:530
0.3565;5.4299;8.4769;0.3806;5.4144;8.1676;0.0503;-0.027;0.423;0.0695;0.0;-0.0098;722.0;5.87;-22.93;-36.09;273.91;-33.51;-2.67;2.0;55.87352;-4.292727;333.87;NaN;;53.64516;;0 / 20;55636;2022-03-22 10:35:27:630
-0.047;5.4873;8.1538;0.3707;5.4796;8.1245;0.2508;0.0818;0.5372;0.0695;0.0;-0.0098;664.0;5.87;-22.93;-36.09;273.91;-33.51;-2.67;2.0;55.87352;-4.292727;333.87;NaN;;53.64516;;0 / 20;55735;2022-03-22 10:35:27:729
0.4678;5.9806;8.3453;0.3862;5.5812;8.0543;0.3436;0.5794;-0.0935;0.0669;-0.024;0.0675;664.0;5.83;-24.28;-35.96;270.29;-33.97;-2.61;2.0;55.87352;-4.292727;333.87;NaN;;53.64516;;0 / 20;55835;2022-03-22 10:35:27:829
0.8136;5.9806;8.2316;0.4768;5.6816;7.9789;0.3753;0.3277;0.2342;0.2356;-0.1272;-0.0308;664.0;5.83;-24.28;-35.96;270.29;-33.97;-2.61;2.0;55.87352;-4.292727;333.87;NaN;;53.64516;;0 / 20;55937;2022-03-22 10:35:27:931
-0.7974;5.7757;6.673;0.4768;5.6816;7.9789;0.3753;0.3277;0.2342;-0.1248;-0.0301;0.1602;601.0;5.55;-25.54;-35.42;261.85;-35.41;-3.42;2.0;55.87352;-4.292727;333.87;NaN;;53.64516;;0 / 20;56036;2022-03-22 10:35:28:030
-1.7097;5.7027;8.0115;0.5293;5.8253;7.8712;-1.1866;-5.0E-4;-1.0782;-0.1248;-0.0301;0.1602;601.0;5.55;-25.54;-35.42;261.85;-35.41;-3.42;2.0;55.87352;-4.292727;333.87;NaN;;53.64516;;0 / 20;56136;2022-03-22 10:35:28:130
-0.5689;5.7099;8.4864;0.4685;5.7965;7.8963;-2.2224;-0.0631;0.1156;0.0848;0.4288;0.3496;601.0;4.82;-26.32;-35.4;265.99;-36.23;-3.4;2.0;55.87352;-4.292727;333.87;NaN;;53.64516;;0 / 20;56236;2022-03-22 10:35:28:230
