sep=;
ACCELEROMETER X (m/s²);ACCELEROMETER Y (m/s²);ACCELEROMETER Z (m/s²);GRAVITY X (m/s²);GRAVITY Y (m/s²);GRAVITY Z (m/s²);LINEAR ACCELERATION X (m/s²);LINEAR ACCELERATION Y (m/s²);LINEAR ACCELERATION Z (m/s²);GYROSCOPE X (rad/s);GYROSCOPE Y (rad/s);GYROSCOPE Z (rad/s);LIGHT (lux);MAGNETIC FIELD X (μT);MAGNETIC FIELD Y (μT);MAGNETIC FIELD Z (μT);ORIENTATION Z (azimuth °);ORIENTATION X (pitch °);ORIENTATION Y (roll °);PROXIMITY (i);LOCATION Latitude : ;LOCATION Longitude : ;LOCATION Altitude ( m);LOCATION Altitude-google ( m);LOCATION Speed ( Kmh);LOCATION Accuracy ( m);LOCATION ORIENTATION (°);Satellites in range;Time since start in ms ;YYYY-MO-DD HH-MI-SS_SSS
-2.8349;4.0268;8.6985;-2.9861;3.8671;8.5029;-0.3344;-0.0764;0.2403;-0.0567;-0.3803;0.0412;0.0;26.06;-19.5;-21.34;252.46;-25.74;32.58;2.0;55.699978;-4.091975;932.64;NaN;0.86;31.122583;300.2;10 / 30;9;2022-03-07 02:05:01:007
-2.7739;3.9239;8.7165;-2.697;3.7509;8.6503;-0.2165;0.1672;-0.2173;-0.0567;-0.3803;0.0412;0.0;19.99;-18.02;-24.41;245.4;-23.22;19.35;2.0;55.699978;-4.091975;932.64;NaN;0.86;31.122583;300.2;10 / 30;109;2022-03-07 02:05:01:107
-2.592;3.5623;8.9258;-2.697;3.7509;8.6503;-0.2165;0.1672;-0.2173;-0.1981;-0.246;-0.0388;0.0;19.99;-18.02;-24.41;245.4;-23.22;19.35;2.0;55.699978;-4.091975;932.64;NaN;0.86;31.122583;300.2;10 / 30;208;2022-03-07 02:05:01:206
-2.5502;3.6784;8.8301;-2.5286;3.61;8.7604;-0.1012;0.0355;0.0809;0.0023;-0.0706;0.0102;0.0;14.16;-16.99;-26.23;230.61;-22.49;17.32;2.0;55.699978;-4.091975;932.64;NaN;0.86;31.122583;300.2;10 / 30;309;2022-03-07 02:05:01:307
-2.5765;3.6401;8.6746;-2.4859;3.6054;8.7745;-0.064;0.1285;-0.0412;0.0142;-0.038;0.0072;0.0;11.96;-15.99;-26.46;230.61;-22.49;17.32;2.0;55.699978;-4.091975;932.64;NaN;0.86;31.122583;300.2;10 / 30;408;2022-03-07 02:05:01:406
-2.5944;3.6485;8.7858;-2.4627;3.6226;8.774;-0.0837;0.0294;-0.0431;0.0142;-0.038;0.0072;0.0;10.67;-15.67;-26.64;218.33;-21.68;15.68;2.0;55.699978;-4.091975;932.64;NaN;0.86;31.122583;300.2;10 / 30;508;2022-03-07 02:05:01:506
-2.5944;3.6485;8.7858;-2.4474;3.639;8.7715;-0.0816;0.0061;0.0097;0.0124;-0.0486;0.0089;0.0;10.67;-15.67;-26.64;218.33;-21.68;15.68;2.0;55.69997;-4.091986;934.79;NaN;6.23;34.580647;311.6;10 / 30;609;2022-03-07 02:05:01:607
-2.5116;3.7277;8.7332;-2.4292;3.6633;8.7664;-0.0457;0.0439;-0.0248;-0.0024;-0.0217;0.0032;0.0;10.09;-15.54;-26.89;209.44;-21.78;15.59;2.0;55.69997;-4.091986;934.79;NaN;6.23;34.580647;311.6;10 / 30;708;2022-03-07 02:05:01:706
-2.4912;3.6664;8.6997;-2.4326;3.6692;8.763;-0.012;0.0148;-0.022;0.0;-0.0058;-2.0E-4;0.0;9.77;-15.47;-26.81;209.44;-21.78;15.59;2.0;55.69997;-4.091986;934.79;NaN;6.23;34.580647;311.6;10 / 30;809;2022-03-07 02:05:01:807
-2.4733;3.6915;8.9342;-2.4373;3.6752;8.7591;-0.0087;-0.006;-0.0815;0.0;-0.0058;-2.0E-4;0.0;9.68;-15.51;-26.7;210.46;-21.97;15.51;2.0;55.69997;-4.091986;934.79;NaN;6.23;34.580647;311.6;10 / 30;909;2022-03-07 02:05:01:907
-2.3955;3.7122;8.6973;-2.4373;3.6752;8.7591;-0.0087;-0.006;-0.0815;-0.0081;-0.0079;-8.0E-4;0.0;9.68;-15.51;-26.7;210.46;-21.97;15.51;2.0;55.69997;-4.091986;934.79;NaN;6.23;34.580647;311.6;10 / 30;1008;2022-03-07 02:05:02:006
-2.4781;3.6628;8.5956;-2.4415;3.6789;8.7564;-0.0054;0.001;-0.0719;0.0064;-0.0194;0.0024;0.0;9.41;-15.6;-26.89;198.91;-22.01;15.55;2.0;55.69997;-4.091986;934.79;NaN;6.23;34.580647;311.6;10 / 30;1109;2022-03-07 02:05:02:107
-2.4697;3.693;8.9139;-2.4385;3.6855;8.7545;0.0015;-0.0071;-0.0437;0.015;-0.0156;0.0049;0.0;9.41;-15.6;-26.89;198.91;-22.01;15.55;2.0;55.69997;-4.091986;934.79;NaN;6.23;34.580647;311.6;10 / 30;1209;2022-03-07 02:05:02:207
-2.4757;3.699;8.7284;-2.428;3.6979;8.7522;-0.0305;0.019;0.0582;0.015;-0.0156;0.0049;0.0;9.32;-15.69;-26.63;198.97;-22.07;15.56;2.0;55.69997;-4.091986;934.79;NaN;6.23;34.580647;311.6;10 / 30;1309;2022-03-07 02:05:02:307
-2.49;3.7134;8.7595;-2.4158;3.7102;8.7503;-0.0011;-9.0E-4;-0.0041;0.0125;-0.0139;0.0032;0.0;9.32;-15.69;-26.63;198.97;-22.07;15.56;2.0;55.69997;-4.091986;934.79;NaN;6.23;34.580647;311.6;10 / 30;1409;2022-03-07 02:05:02:407
-2.441;3.7277;8.9139;-2.3939;3.7279;8.7488;-0.0167;0.0256;-0.0079;0.0086;-0.0235;0.0043;0.0;9.36;-15.88;-26.12;201.66;-22.23;15.43;2.0;55.69997;-4.091986;934.79;NaN;6.23;34.580647;311.6;10 / 30;1508;2022-03-07 02:05:02:506
-2.4206;3.7361;8.7715;-2.3927;3.7369;8.7453;-0.0142;-3.0E-4;-0.0234;0.0041;-0.0047;9.0E-4;0.0;9.32;-16.11;-26.12;201.66;-22.23;15.43;2.0;55.699963;-4.092005;934.42;NaN;6.05;38.038708;311.0;10 / 30;1609;2022-03-07 02:05:02:607
-2.3955;3.7588;8.7691;-2.3927;3.7369;8.7453;-0.0142;-3.0E-4;-0.0234;0.0041;-0.0047;9.0E-4;1.0;9.26;-16.01;-26.01;202.79;-22.4;15.3;2.0;55.699963;-4.092005;934.42;NaN;6.05;38.038708;311.0;10 / 30;1709;2022-03-07 02:05:02:707
-2.3728;3.7253;8.7284;-2.3923;3.7418;8.7433;-0.0114;-0.0016;-0.0212;0.0015;0.0046;0.0017;1.0;9.26;-16.01;-26.01;202.79;-22.4;15.3;2.0;55.699963;-4.092005;934.42;NaN;6.05;38.038708;311.0;10 / 30;1808;2022-03-07 02:05:02:806
-2.3776;3.6942;8.726;-2.3921;3.747;8.7412;-0.0087;0.0105;-0.0545;0.0043;0.0052;0.0;1.0;9.23;-16.05;-26.01;202.86;-22.43;15.3;2.0;55.699963;-4.092005;934.42;NaN;6.05;38.038708;311.0;10 / 30;1908;2022-03-07 02:05:02:906
-2.4362;3.7624;8.6973;-2.3891;3.7508;8.7404;-0.019;-0.0198;-0.1233;0.0147;0.0026;0.0044;1.0;8.94;-16.12;-26.42;202.86;-22.43;15.3;2.0;55.699963;-4.092005;934.42;NaN;6.05;38.038708;311.0;10 / 30;2009;2022-03-07 02:05:03:007
-2.4362;3.7624;8.6973;-2.3841;3.7624;8.7368;0.0014;-0.0185;-0.0754;0.0147;0.0026;0.0044;1.0;8.87;-16.12;-25.84;203.42;-22.56;15.26;2.0;55.699963;-4.092005;934.42;NaN;6.05;38.038708;311.0;10 / 30;2109;2022-03-07 02:05:03:107
-2.4075;3.7923;8.8576;-2.3805;3.7669;8.7358;-0.0091;0.0061;0.0174;0.0058;-0.0038;0.0026;1.0;8.87;-16.12;-25.84;203.42;-22.56;15.26;2.0;55.699963;-4.092005;934.42;NaN;6.05;38.038708;311.0;10 / 30;2209;2022-03-07 02:05:03:207
-2.3692;3.7385;8.7009;-2.3736;3.7728;8.7351;-0.0187;-0.0088;-0.0437;0.0111;-0.0116;0.005;1.0;8.98;-16.31;-25.97;203.61;-22.59;15.24;2.0;55.699963;-4.092005;934.42;NaN;6.05;38.038708;311.0;10 / 30;2309;2022-03-07 02:05:03:307
-2.3608;3.7863;8.7655;-2.3724;3.775;8.7345;-0.0151;-0.0118;-0.0187;0.0018;-0.0027;0.0012;1.0;9.09;-16.43;-25.76;203.61;-22.59;15.24;2.0;55.699963;-4.092005;934.42;NaN;6.05;38.038708;311.0;10 / 30;2409;2022-03-07 02:05:03:407
-2.3608;3.7863;8.7655;-2.3724;3.775;8.7345;-0.0151;-0.0118;-0.0187;0.0018;-0.0027;0.0012;1.0;8.98;-16.22;-25.54;204.0;-22.64;15.2;2.0;55.699963;-4.092005;934.42;NaN;6.05;38.038708;311.0;9 / 30;2510;2022-03-07 02:05:03:508
-2.374;3.7564;8.7691;-2.3749;3.7718;8.7352;-0.0063;0.0072;-0.0164;-0.004;0.0021;-0.0012;1.0;8.98;-16.22;-25.54;204.0;-22.64;15.2;2.0;55.699936;-4.092001;933.02;NaN;0.0;41.496777;;9 / 30;2609;2022-03-07 02:05:03:607
-2.3895;3.7445;8.7344;-2.3761;3.7697;8.7358;-0.0018;0.0144;0.0142;0.0037;-0.0024;0.0;1.0;8.93;-16.31;-25.71;203.87;-22.62;15.21;2.0;55.699936;-4.092001;933.02;NaN;0.0;41.496777;;9 / 30;2709;2022-03-07 02:05:03:707
-2.3812;3.8222;8.7954;-2.3779;3.77;8.7352;-0.0282;0.0217;-0.0106;0.0044;-0.0046;9.0E-4;1.0;8.87;-16.31;-26.06;203.87;-22.62;15.21;2.0;55.699936;-4.092001;933.02;NaN;0.0;41.496777;;9 / 30;2808;2022-03-07 02:05:03:806
-2.3812;3.8222;8.7954;-2.369;3.7679;8.7385;0.006;0.028;0.0268;0.0044;-0.0046;9.0E-4;1.0;8.74;-16.39;-26.21;204.02;-22.59;15.17;2.0;55.699936;-4.092001;933.02;NaN;0.0;41.496777;;9 / 30;2908;2022-03-07 02:05:03:906
-2.4374;3.7899;8.8349;-2.3731;3.7678;8.7374;0.0049;-0.0035;0.0225;-6.0E-4;-0.0066;0.0011;1.0;8.74;-16.39;-26.21;204.02;-22.59;15.17;2.0;55.699936;-4.092001;933.02;NaN;0.0;41.496777;;9 / 30;3009;2022-03-07 02:05:04:007
-2.4386;3.766;8.7607;-2.3713;3.767;8.7383;-0.0026;0.0021;-0.0104;0.0049;0.0023;0.0023;1.0;8.87;-16.46;-26.47;203.88;-22.59;15.2;2.0;55.699936;-4.092001;933.02;NaN;0.0;41.496777;;9 / 30;3109;2022-03-07 02:05:04:107
-2.3608;3.7768;8.7188;-2.3634;3.7716;8.7384;0.0039;0.0046;-0.0405;0.0015;-0.0079;0.0024;1.0;8.87;-16.46;-26.47;203.88;-22.59;15.2;2.0;55.699936;-4.092001;933.02;NaN;0.0;41.496777;;9 / 30;3209;2022-03-07 02:05:04:207
-2.3584;3.7899;8.7607;-2.3634;3.7716;8.7384;0.0039;0.0046;-0.0405;0.0015;-0.0079;0.0024;1.0;8.87;-16.5;-26.49;204.27;-22.62;15.13;2.0;55.699936;-4.092001;933.02;NaN;0.0;41.496777;;9 / 30;3309;2022-03-07 02:05:04:307
-2.356;3.7528;8.6973;-2.3549;3.7728;8.7402;0.0122;0.0214;-0.029;-0.0011;-0.0142;9.0E-4;1.0;8.87;-16.5;-26.49;204.27;-22.62;15.13;2.0;55.699936;-4.092001;933.02;NaN;0.0;41.496777;;9 / 30;3408;2022-03-07 02:05:04:406
-2.3716;3.7552;8.6853;-2.355;3.7668;8.7427;0.016;-0.0347;-0.0508;-3.0E-4;-0.0113;0.0021;1.0;8.87;-16.33;-26.29;204.59;-22.63;15.08;2.0;55.699936;-4.092001;933.02;NaN;0.0;41.496777;;8 / 30;3508;2022-03-07 02:05:04:506
-2.3847;3.8007;8.8804;-2.3531;3.7653;8.7439;-0.0355;-0.0149;-0.0786;0.006;-0.0108;0.0066;1.0;8.87;-16.33;-26.29;204.59;-22.63;15.08;2.0;55.699932;-4.091995;934.0;NaN;0.0;48.412903;;8 / 30;3609;2022-03-07 02:05:04:607
-2.429;3.7911;8.7811;-2.3447;3.7661;8.7458;0.0158;-0.0406;-0.0366;0.006;-0.0108;0.0066;1.0;8.7;-16.33;-26.14;204.54;-22.58;15.06;2.0;55.699932;-4.091995;934.0;NaN;0.0;48.412903;;8 / 30;3709;2022-03-07 02:05:04:707
-2.3333;3.7756;8.6483;-2.3318;3.7836;8.7417;0.0522;0.0348;0.0229;0.0228;-0.0104;0.0021;1.0;8.7;-16.33;-26.14;204.54;-22.58;15.06;2.0;55.699932;-4.091995;934.0;NaN;0.0;48.412903;;8 / 30;3809;2022-03-07 02:05:04:807
-2.38;3.784;8.5705;-2.3556;3.7752;8.739;-0.0048;0.0054;-0.0991;-0.0142;0.0298;-0.0101;1.0;8.74;-16.16;-26.1;205.55;-22.69;14.94;2.0;55.699932;-4.091995;934.0;NaN;0.0;48.412903;;8 / 30;3909;2022-03-07 02:05:04:907
-2.3991;3.7516;8.6638;-2.3556;3.7752;8.739;-0.0048;0.0054;-0.0991;0.0072;-0.0053;0.0027;1.0;8.46;-16.31;-25.99;205.55;-22.69;14.94;2.0;55.699932;-4.091995;934.0;NaN;0.0;48.412903;;8 / 30;4008;2022-03-07 02:05:05:006
-2.2914;3.754;9.0335;-2.3647;3.7709;8.7384;0.0297;-0.0171;0.0036;0.0072;-0.0053;0.0027;1.0;8.68;-16.35;-26.06;204.22;-22.61;15.14;2.0;55.699932;-4.091995;934.0;NaN;0.0;48.412903;;8 / 30;4109;2022-03-07 02:05:05:107
-2.435;3.7935;8.7847;-2.355;3.7769;8.7384;0.0161;-0.0154;0.0448;0.0021;-0.006;0.0012;1.0;8.68;-16.35;-26.06;204.22;-22.61;15.14;2.0;55.699932;-4.091995;934.0;NaN;0.0;48.412903;;8 / 30;4209;2022-03-07 02:05:05:207
-2.3405;3.8653;8.805;-2.3607;3.7741;8.738;-0.0301;0.007;-0.0319;-0.0055;-0.0116;-0.0017;1.0;8.89;-16.69;-26.31;200.6;-22.65;15.08;2.0;55.699932;-4.091995;934.0;NaN;0.0;48.412903;;8 / 30;4309;2022-03-07 02:05:05:307
-2.3345;3.7875;8.6507;-2.2975;3.7683;8.7574;-0.0675;-0.0428;-0.1725;-0.0153;-0.1289;0.0095;1.0;8.89;-16.69;-26.31;200.6;-22.65;15.08;2.0;55.699932;-4.091995;934.0;NaN;0.0;48.412903;;8 / 30;4409;2022-03-07 02:05:05:407
-2.0007;3.6556;8.4039;-2.1407;3.7578;8.8015;-0.1661;-0.0195;-0.1588;-0.0153;-0.1289;0.0095;1.0;9.06;-16.78;-26.34;202.24;-22.6;14.7;2.0;55.699932;-4.091995;934.0;NaN;0.0;48.412903;;8 / 30;4508;2022-03-07 02:05:05:506
-2.2328;4.8024;10.2114;-1.825;3.2997;9.0527;-0.0813;1.0131;-0.4092;-0.3157;-0.2372;-0.079;1.0;9.06;-16.78;-26.34;202.24;-22.6;14.7;2.0;55.699932;-4.091995;934.0;NaN;0.0;48.412903;;8 / 30;4609;2022-03-07 02:05:05:607
-1.0478;3.3912;12.4451;-2.8311;0.6796;9.3645;1.6388;2.8341;3.0535;-2.3212;0.963;-1.5054;1.0;8.4;-16.14;-26.42;204.41;-19.66;11.4;2.0;55.699932;-4.091995;934.0;NaN;0.0;48.412903;;8 / 30;4708;2022-03-07 02:05:05:706
-1.1303;-0.7397;6.405;-2.8311;0.6796;9.3645;1.6388;2.8341;3.0535;-0.7228;2.7386;-2.3382;0.0;8.4;-16.14;-26.42;204.41;-19.66;11.4;2.0;55.699932;-4.091995;934.0;NaN;0.0;48.412903;;8 / 30;4809;2022-03-07 02:05:05:807
-7.3083;-7.6528;3.4804;-5.5959;-2.1717;7.755;4.4213;1.8901;-1.7034;-0.7228;2.7386;-2.3382;0.0;-0.77;-20.44;-34.93;147.87;-3.97;16.82;2.0;55.699932;-4.091995;934.0;NaN;0.0;48.412903;;8 / 30;4909;2022-03-07 02:05:05:907
-5.4745;-3.3625;11.2361;-3.9927;-1.2338;8.8717;-3.3729;-6.9022;-0.5713;1.2066;-1.4818;0.4001;1.0;-0.77;-20.44;-34.93;147.87;-3.97;16.82;2.0;55.699932;-4.091995;934.0;NaN;0.0;48.412903;;8 / 30;5009;2022-03-07 02:05:06:007
0.402;5.7027;5.6877;-4.1207;1.0723;8.8341;-0.1664;-2.5173;0.3527;0.5643;0.1202;2.628;1.0;7.44;-11.68;-37.46;151.94;7.23;24.23;2.0;55.699932;-4.091995;934.0;NaN;0.0;48.412903;;8 / 30;5109;2022-03-07 02:05:06:107
-3.2192;0.7325;8.3333;-3.4796;1.2165;9.0875;2.6368;1.9274;-4.8231;0.9135;-1.9564;-0.0159;1.0;10.88;-9.02;-38.83;151.94;7.23;24.23;2.0;55.699932;-4.091995;934.0;NaN;0.0;48.412903;;8 / 30;5209;2022-03-07 02:05:06:207
-2.878;0.5411;12.9503;-1.9936;3.2142;9.0479;-4.7647;-5.6111;7.6563;0.9135;-1.9564;-0.0159;1.0;10.99;-9.43;-38.62;136.9;-7.13;20.95;2.0;55.699932;-4.091995;934.0;NaN;0.0;48.412903;;8 / 30;5308;2022-03-07 02:05:06:306
3.6497;5.7745;3.2877;-2.4336;5.1241;7.9995;5.1289;0.5088;-4.2864;2.4942;1.1064;2.2181;1.0;10.99;-9.43;-38.62;136.9;-7.13;20.95;2.0;55.699932;-4.091995;934.0;NaN;0.0;48.412903;;8 / 30;5408;2022-03-07 02:05:06:406
-2.7643;6.2833;12.0574;-5.6678;2.989;7.4237;2.9802;3.0819;3.2228;-1.5977;3.121;-1.7568;0.0;3.9;-17.03;-36.88;56.42;-31.5;16.92;2.0;55.699932;-4.091995;934.0;NaN;0.0;48.412903;;9 / 30;5509;2022-03-07 02:05:06:507
-4.6842;0.498;-0.818;-5.6678;2.989;7.4237;2.9802;3.0819;3.2228;-0.0156;-2.9052;-0.5962;0.0;2.4;-21.04;-35.79;56.42;-31.5;16.92;2.0;55.699944;-4.092001;935.6;NaN;0.0;51.870968;;9 / 30;5609;2022-03-07 02:05:06:607
2.8463;1.0953;34.7294;-4.8595;2.1244;8.2488;0.3467;-1.6159;-9.3098;-0.0156;-2.9052;-0.5962;1.0;2.59;-22.11;-35.14;133.91;-12.51;30.5;2.0;55.699944;-4.092001;935.6;NaN;0.0;51.870968;;9 / 30;5709;2022-03-07 02:05:06:707
0.3194;5.7135;4.9983;-1.9939;3.679;8.869;3.9284;-0.6673;16.4495;1.1898;3.8225;0.8022;1.0;2.59;-22.11;-35.14;133.91;-12.51;30.5;2.0;55.699944;-4.092001;935.6;NaN;0.0;51.870968;;9 / 30;5808;2022-03-07 02:05:06:806
-3.5734;2.2397;4.4704;-3.9882;4.2412;7.8915;2.8283;-0.4208;-6.1035;0.168;0.015;-0.6548;1.0;1.52;-24.3;-33.92;150.26;-22.03;12.67;2.0;55.699944;-4.092001;935.6;NaN;0.0;51.870968;;9 / 30;5909;2022-03-07 02:05:06:907
-0.7723;3.5611;15.2258;-1.024;2.676;9.3787;-2.9017;-0.179;-2.0913;0.3587;-0.2152;0.0559;1.0;1.52;-24.3;-33.92;150.26;-22.03;12.67;2.0;55.699944;-4.092001;935.6;NaN;0.0;51.870968;;9 / 30;6009;2022-03-07 02:05:07:007
-0.8982;2.7736;-0.2148;-3.527;3.3905;8.4992;2.4147;0.301;1.5151;0.3587;-0.2152;0.0559;1.0;2.04;-23.23;-34.28;172.45;-15.84;6.23;2.0;55.699944;-4.092001;935.6;NaN;0.0;51.870968;;9 / 30;6109;2022-03-07 02:05:07:107
-6.7062;2.3964;-0.7092;-4.5293;3.224;8.0785;4.5112;-2.7486;-9.348;0.2544;1.9091;-0.759;1.0;-1.63;-24.43;-34.05;172.45;-15.84;6.23;2.0;55.699944;-4.092001;935.6;NaN;0.0;51.870968;;9 / 30;6208;2022-03-07 02:05:07:206
0.9036;2.9303;14.1305;-4.5293;3.224;8.0785;4.5112;-2.7486;-9.348;-1.2837;-5.9345;0.5027;0.0;-0.06;-24.53;-34.03;129.81;-19.19;29.28;2.0;55.699944;-4.092001;935.6;NaN;0.0;51.870968;;9 / 30;6308;2022-03-07 02:05:07:306
0.816;3.3135;8.805;-0.057;2.5086;9.4802;3.947;0.3233;17.3595;0.2121;-0.8268;0.2033;0.0;-0.06;-24.53;-34.03;129.81;-19.19;29.28;2.0;55.699944;-4.092001;935.6;NaN;0.0;51.870968;;9 / 30;6408;2022-03-07 02:05:07:406
2.1748;3.1866;8.2651;0.4248;3.05;9.3106;-0.3608;-0.1922;-1.8686;0.2121;-0.8268;0.2033;0.0;-3.77;-23.89;-33.66;163.84;-14.82;0.34;2.0;55.699944;-4.092001;935.6;NaN;0.0;51.870968;;9 / 30;6508;2022-03-07 02:05:07:506
2.2394;2.2744;10.9561;1.6516;2.6844;9.2864;-0.0284;0.2353;-0.5286;-0.5863;-0.9818;-0.1652;1.0;-3.77;-23.89;-33.66;163.84;-14.82;0.34;2.0;55.699944;-4.092001;935.6;NaN;0.0;51.870968;;9 / 30;6608;2022-03-07 02:05:07:606
-2.6195;2.3007;10.585;0.3735;2.815;9.3865;1.2358;-0.2959;0.6464;-0.3146;2.617;-0.6072;1.0;-8.62;-24.02;-31.67;166.93;-15.89;-10.08;2.0;55.699944;-4.092001;935.6;NaN;0.0;51.870968;;9 / 30;6708;2022-03-07 02:05:07:706
-1.8796;2.388;10.5586;-1.726;2.3892;9.3532;-0.3097;-0.1021;0.4066;0.1658;-0.1038;0.0292;1.0;-12.96;-24.06;-30.99;166.93;-15.89;-10.08;2.0;55.699944;-4.092001;935.6;NaN;0.0;51.870968;;9 / 30;6808;2022-03-07 02:05:07:806
-1.7886;2.6922;9.5351;-1.6892;2.5584;9.3151;0.0342;0.0488;0.0136;0.1658;-0.1038;0.0292;0.0;-11.47;-24.09;-31.18;134.81;-14.1;10.46;2.0;55.699944;-4.092001;935.6;NaN;0.0;51.870968;;9 / 30;6908;2022-03-07 02:05:07:906
-1.9418;2.6874;9.492;-1.7031;2.6234;9.2945;-0.1889;0.0855;0.2092;0.0614;0.0634;0.0476;0.0;-11.47;-24.09;-31.18;134.81;-14.1;10.46;2.0;55.699944;-4.092001;935.6;NaN;0.0;51.870968;;9 / 30;7008;2022-03-07 02:05:08:006
-1.2655;2.8765;9.1511;-1.7031;2.6234;9.2945;-0.1889;0.0855;0.2092;0.0541;0.0612;-0.0263;0.0;-8.83;-23.74;-31.93;136.0;-15.52;10.38;2.0;55.699944;-4.092001;935.6;NaN;0.0;51.870968;;9 / 30;7108;2022-03-07 02:05:08:106
-1.7372;2.2983;9.1917;-1.7843;2.6718;9.2654;0.3905;-0.024;0.1128;0.102;0.211;-0.0554;1.0;-4.84;-23.62;-33.19;136.0;-15.52;10.38;2.0;55.699944;-4.092001;935.6;NaN;0.0;51.870968;;9 / 30;7209;2022-03-07 02:05:08:207
-2.0677;2.7401;8.9677;-1.9814;2.7135;9.2131;0.1332;-0.2157;0.2919;0.102;0.211;-0.0554;1.0;-2.87;-23.59;-33.34;145.4;-16.06;12.14;2.0;55.699944;-4.092001;935.6;NaN;0.0;51.870968;;9 / 30;7308;2022-03-07 02:05:08:306
-2.7619;3.2166;9.4238;-2.0453;2.7021;9.2025;-0.103;0.3568;0.1165;-0.1058;0.0505;0.026;1.0;-2.87;-23.59;-33.34;145.4;-16.06;12.14;2.0;55.699944;-4.092001;935.6;NaN;0.0;51.870968;;9 / 30;7409;2022-03-07 02:05:08:407
-2.2172;2.1751;9.2228;-2.1082;2.5754;9.2246;0.0274;-0.331;0.025;-0.0615;0.0486;-0.0075;1.0;-2.46;-23.68;-33.32;147.52;-15.99;12.53;2.0;55.699944;-4.092001;935.6;NaN;0.0;51.870968;;9 / 30;7509;2022-03-07 02:05:08:507
-2.1467;2.327;9.2013;-2.1653;2.5436;9.2202;-0.0053;-0.3865;-0.0455;0.0722;0.0452;-0.0024;1.0;-1.95;-23.53;-33.45;147.52;-15.99;12.53;2.0;55.699944;-4.092001;935.6;NaN;0.0;51.870968;;9 / 30;7609;2022-03-07 02:05:08:607
-2.2196;2.7592;9.2862;-2.1916;2.6029;9.1974;-0.0114;0.1718;0.1188;0.0722;0.0452;-0.0024;1.0;-1.8;-23.4;-33.32;145.86;-15.03;13.22;2.0;55.699944;-4.092001;935.6;NaN;0.0;51.870968;;9 / 30;7708;2022-03-07 02:05:08:706
-2.2735;2.5519;9.2145;-2.2318;2.5875;9.1921;-0.0351;-0.0435;0.0354;-0.0154;0.0266;-0.0064;1.0;-1.8;-23.4;-33.32;145.86;-15.03;13.22;2.0;55.699944;-4.092001;935.6;NaN;0.0;51.870968;;9 / 30;7808;2022-03-07 02:05:08:806
-2.3225;2.4359;9.2037;-2.2318;2.5875;9.1921;-0.0351;-0.0435;0.0354;0.0053;0.0121;-0.0038;1.0;-1.61;-23.19;-33.68;143.75;-15.3;13.65;2.0;55.699944;-4.092001;935.6;NaN;0.0;51.870968;;9 / 30;7909;2022-03-07 02:05:08:907
-2.2639;2.6336;9.2408;-2.2566;2.5655;9.1922;-0.0546;-0.108;0.0029;0.0137;-0.0032;0.0049;1.0;-1.61;-23.19;-33.68;143.75;-15.3;13.65;2.0;55.699944;-4.092001;935.6;NaN;0.0;51.870968;;9 / 30;8009;2022-03-07 02:05:09:007
-2.2472;2.63;9.2061;-2.2511;2.5877;9.1873;0.0099;0.0663;0.0416;0.0137;-0.0032;0.0049;1.0;-1.16;-23.01;-33.47;147.51;-15.17;13.79;2.0;55.699944;-4.092001;935.6;NaN;0.0;51.870968;;9 / 30;8109;2022-03-07 02:05:09:107
-2.3046;2.5472;9.2516;-2.2493;2.5851;9.1885;0.0355;-0.0064;-0.0029;-0.0089;0.0032;-0.002;1.0;-1.16;-23.01;-33.47;147.51;-15.17;13.79;2.0;55.699944;-4.092001;935.6;NaN;0.0;51.870968;;9 / 30;8209;2022-03-07 02:05:09:207
-2.3046;2.5472;9.2516;-2.2524;2.5796;9.1893;-0.0228;-0.0341;0.0442;0.0052;-0.0049;0.0027;1.0;-1.09;-22.99;-33.23;147.42;-15.28;13.76;2.0;55.699944;-4.092001;935.6;NaN;0.0;51.870968;;9 / 30;8308;2022-03-07 02:05:09:306
-2.2591;2.5869;9.2659;-2.2554;2.5776;9.1891;-0.0225;0.023;0.0167;-0.0026;0.0029;0.002;1.0;-1.26;-23.03;-33.06;147.42;-15.28;13.76;2.0;55.699944;-4.092001;935.6;NaN;0.0;51.870968;;9 / 30;8408;2022-03-07 02:05:09:406
-2.3046;2.5412;9.1846;-2.2671;2.5811;9.1852;-0.0099;-0.0107;-0.0146;-0.0026;0.0029;0.002;1.0;-1.48;-23.23;-33.23;147.42;-15.24;13.79;2.0;55.699944;-4.092001;935.6;NaN;0.0;51.870968;;10 / 30;8508;2022-03-07 02:05:09:506
-2.2735;2.5857;9.157;-2.2671;2.5811;9.1852;-0.0099;-0.0107;-0.0146;0.011;0.0145;-0.0076;1.0;-1.48;-23.23;-33.23;147.42;-15.24;13.79;2.0;55.69996;-4.092032;935.18;NaN;0.0;34.580647;;10 / 30;8608;2022-03-07 02:05:09:606
-2.3201;2.5304;9.2121;-2.2787;2.5836;9.1816;0.0115;0.0135;0.0341;-0.0125;0.0031;-0.0029;1.0;-1.33;-23.27;-33.64;145.95;-15.28;13.94;2.0;55.69996;-4.092032;935.18;NaN;0.0;34.580647;;10 / 30;8708;2022-03-07 02:05:09:706
-2.3285;2.581;9.2181;-2.2867;2.5709;9.1832;-0.0064;-0.0128;-0.0127;0.0119;0.0096;5.0E-4;1.0;-1.28;-23.42;-33.82;145.95;-15.28;13.94;2.0;55.69996;-4.092032;935.18;NaN;0.0;34.580647;;10 / 30;8808;2022-03-07 02:05:09:806
-2.3285;2.5627;9.1678;-2.3026;2.5715;9.1791;-0.0252;-0.0068;0.0115;0.0119;0.0096;5.0E-4;1.0;-1.03;-23.36;-34.09;145.82;-15.2;14.08;2.0;55.69996;-4.092032;935.18;NaN;0.0;34.580647;;10 / 30;8909;2022-03-07 02:05:09:907
-2.3273;2.5726;9.2049;-2.3115;2.5838;9.1734;-0.0083;-2.0E-4;-0.0193;0.0116;0.0037;-2.0E-4;1.0;-1.03;-23.36;-34.09;145.82;-15.2;14.08;2.0;55.69996;-4.092032;935.18;NaN;0.0;34.580647;;10 / 30;9009;2022-03-07 02:05:10:007
-2.3249;2.5714;9.2109;-2.304;2.583;9.1755;-0.024;0.005;0.0026;-0.0038;-0.0104;6.0E-4;1.0;-1.2;-23.21;-34.16;145.63;-15.28;14.14;2.0;55.69996;-4.092032;935.18;NaN;0.0;34.580647;;10 / 30;9109;2022-03-07 02:05:10:107
-2.3082;2.581;9.1917;-2.3037;2.5803;9.1763;-0.0233;-0.0141;0.0039;0.0021;-0.0061;9.0E-4;1.0;-1.03;-23.16;-34.01;145.63;-15.28;14.14;2.0;55.69996;-4.092032;935.18;NaN;0.0;34.580647;;10 / 30;9208;2022-03-07 02:05:10:206
-2.3106;2.5965;9.1834;-2.2976;2.5821;9.1774;0.002;0.013;0.01;0.0021;-0.0061;9.0E-4;1.0;-1.11;-23.16;-34.03;145.74;-15.26;14.09;2.0;55.69996;-4.092032;935.18;NaN;0.0;34.580647;;10 / 30;9308;2022-03-07 02:05:10:306
-2.3201;2.6001;9.1666;-2.2976;2.5821;9.1774;0.002;0.013;0.01;-6.0E-4;-0.0029;2.0E-4;1.0;-1.11;-23.16;-34.03;145.74;-15.26;14.09;2.0;55.69996;-4.092032;935.18;NaN;0.0;34.580647;;10 / 30;9409;2022-03-07 02:05:10:407
-2.3883;2.5184;9.2216;-2.2985;2.5822;9.1771;-0.0033;-0.0017;0.0041;-0.0049;-0.0027;-0.0014;1.0;-1.28;-23.27;-33.99;145.78;-15.27;14.06;2.0;55.69996;-4.092032;935.18;NaN;0.0;34.580647;;10 / 30;9508;2022-03-07 02:05:10:506
-2.3166;2.5507;9.23;-2.3001;2.5773;9.1781;-0.0395;-0.0072;5.0E-4;0.0038;0.0047;0.0034;1.0;-1.28;-23.27;-33.99;145.78;-15.27;14.06;2.0;55.699947;-4.092023;935.08;NaN;0.0;34.580647;;10 / 30;9608;2022-03-07 02:05:10:606
-2.3022;2.6264;9.169;-2.3049;2.5749;9.1776;-0.0099;-0.032;0.024;0.0038;0.0047;0.0034;1.0;-1.12;-23.42;-33.94;145.8;-15.24;14.07;2.0;55.699947;-4.092023;935.08;NaN;0.0;34.580647;;10 / 30;9708;2022-03-07 02:05:10:706
-2.3393;2.5714;9.1917;-2.3056;2.5786;9.1764;0.0101;0.0236;-0.0185;-0.0021;-3.0E-4;-0.0015;1.0;-1.12;-23.42;-33.94;145.8;-15.24;14.07;2.0;55.699947;-4.092023;935.08;NaN;0.0;34.580647;;10 / 30;9809;2022-03-07 02:05:10:807
-2.3249;2.5496;9.1989;-2.3093;2.5738;9.1768;-0.0202;-0.0086;0.0039;2.0E-4;0.0;-3.0E-4;1.0;-1.18;-23.38;-34.14;145.73;-15.24;14.1;2.0;55.699947;-4.092023;935.08;NaN;0.0;34.580647;;10 / 30;9909;2022-03-07 02:05:10:907
-2.3213;2.5774;9.1989;-2.3127;2.574;9.1758;-7.0E-4;-0.0026;-0.0095;0.0049;0.0034;8.0E-4;1.0;-1.26;-23.32;-34.24;145.73;-15.24;14.1;2.0;55.699947;-4.092023;935.08;NaN;0.0;34.580647;;10 / 30;10009;2022-03-07 02:05:11:007
-2.3261;2.5822;9.169;-2.313;2.5773;9.1749;-2.0E-4;-0.0021;-0.0065;0.0049;0.0034;8.0E-4;1.0;-1.37;-23.23;-34.39;145.7;-15.22;14.15;2.0;55.699947;-4.092023;935.08;NaN;0.0;34.580647;;10 / 30;10108;2022-03-07 02:05:11:106
-2.3261;2.5822;9.169;-2.313;2.5773;9.1749;-2.0E-4;-0.0021;-0.0065;0.0018;-0.0014;-0.0015;1.0;-1.37;-23.23;-34.39;145.7;-15.22;14.15;2.0;55.699947;-4.092023;935.08;NaN;0.0;34.580647;;10 / 30;10209;2022-03-07 02:05:11:207
-2.3225;2.5845;9.1846;-2.3118;2.5742;9.176;-0.015;-0.0133;0.0093;-0.004;-0.0046;3.0E-4;1.0;-1.01;-23.55;-34.31;147.48;-15.24;14.15;2.0;55.699947;-4.092023;935.08;NaN;0.0;34.580647;;10 / 30;10309;2022-03-07 02:05:11:307
-2.313;2.5714;9.2623;-2.3087;2.5698;9.178;-0.0271;0.0108;-0.0044;-0.0069;-0.0075;0.0;1.0;-1.09;-23.44;-34.41;147.48;-15.24;14.15;2.0;55.699947;-4.092023;935.08;NaN;0.0;34.580647;;10 / 30;10408;2022-03-07 02:05:11:406
-2.3297;2.5232;9.242;-2.2992;2.5648;9.1818;-0.0129;0.0215;-0.0034;-0.0069;-0.0075;0.0;1.0;-0.92;-23.46;-34.29;145.91;-15.16;14.06;2.0;55.699947;-4.092023;935.08;NaN;0.0;34.580647;;10 / 30;10508;2022-03-07 02:05:11:506
-2.3297;2.5232;9.242;-2.2908;2.5627;9.1845;-0.0289;-0.0345;0.0108;0.0067;-0.0134;-0.002;1.0;-0.92;-23.46;-34.29;145.91;-15.16;14.06;2.0;55.69994;-4.091986;931.68;NaN;0.0;31.122583;;10 / 30;10609;2022-03-07 02:05:11:607
-2.3082;2.5328;9.2157;-2.2785;2.5722;9.1849;-0.0085;-0.0293;-0.0058;0.0177;-0.0125;-0.0014;1.0;-1.07;-23.29;-34.24;146.01;-15.15;14.01;2.0;55.69994;-4.091986;931.68;NaN;0.0;31.122583;;10 / 30;10708;2022-03-07 02:05:11:706
-2.307;2.5232;9.242;-2.2711;2.5734;9.1864;-0.0141;0.0067;0.0195;-0.0093;-0.0127;-0.0066;1.0;-1.07;-23.29;-34.24;146.01;-15.15;14.01;2.0;55.69994;-4.091986;931.68;NaN;0.0;31.122583;;10 / 30;10809;2022-03-07 02:05:11:807
-2.2735;2.575;9.1989;-2.2711;2.5734;9.1864;-0.0141;0.0067;0.0195;-0.0093;-0.0127;-0.0066;1.0;-1.39;-23.01;-33.82;146.12;-15.21;13.89;2.0;55.69994;-4.091986;931.68;NaN;0.0;31.122583;;10 / 30;10910;2022-03-07 02:05:11:908
-2.2854;2.6324;9.2264;-2.2779;2.5763;9.1839;5.0E-4;-0.0082;-0.0376;0.0247;0.0102;-0.0102;1.0;-1.39;-23.01;-33.82;146.12;-15.21;13.89;2.0;55.69994;-4.091986;931.68;NaN;0.0;31.122583;;10 / 30;11009;2022-03-07 02:05:12:007
-2.2878;2.5834;9.1726;-2.2729;2.5864;9.1823;0.021;0.0331;0.041;-0.0038;0.0063;-0.0046;1.0;-1.33;-23.55;-33.64;147.82;-15.23;13.93;2.0;55.69994;-4.091986;931.68;NaN;0.0;31.122583;;10 / 30;11109;2022-03-07 02:05:12:107
-2.2854;2.5929;9.1678;-2.2862;2.589;9.1783;0.007;0.0108;-0.043;-0.0052;-0.0018;-3.0E-4;1.0;-1.33;-23.55;-33.64;147.82;-15.23;13.93;2.0;55.69994;-4.091986;931.68;NaN;0.0;31.122583;;10 / 30;11209;2022-03-07 02:05:12:207
-2.3046;2.5702;9.2169;-2.2862;2.5812;9.1805;-0.0389;-0.0221;0.0219;-0.0052;-0.0018;-3.0E-4;1.0;-1.11;-23.89;-33.34;148.78;-15.31;13.99;2.0;55.69994;-4.091986;931.68;NaN;0.0;31.122583;;10 / 30;11310;2022-03-07 02:05:12:308
-2.2902;2.5543;9.2145;-2.2804;2.574;9.1839;-0.0153;-5.0E-4;0.0059;-0.0044;-0.0078;-5.0E-4;1.0;-0.99;-23.85;-33.34;148.78;-15.31;13.99;2.0;55.69994;-4.091986;931.68;NaN;0.0;31.122583;;10 / 30;11409;2022-03-07 02:05:12:407
-2.2807;2.5786;9.1762;-2.2767;2.5624;9.1881;-0.0049;-0.0241;0.0064;-0.0044;-0.0035;0.0011;1.0;-0.94;-23.91;-33.43;148.94;-15.22;13.94;2.0;55.69994;-4.091986;931.68;NaN;0.0;31.122583;;9 / 30;11508;2022-03-07 02:05:12:506
-2.2914;2.5822;9.2049;-2.2751;2.568;9.1869;-0.0095;0.0169;-0.0107;0.0015;-0.0029;3.0E-4;1.0;-0.94;-23.91;-33.43;148.94;-15.22;13.94;2.0;55.69995;-4.091983;930.05;NaN;0.0;27.664516;;9 / 30;11610;2022-03-07 02:05:12:608
-2.2938;2.5531;9.2216;-2.2751;2.568;9.1869;-0.0095;0.0169;-0.0107;0.0015;-0.0029;3.0E-4;1.0;-0.97;-23.74;-33.62;147.91;-15.18;13.91;2.0;55.69995;-4.091983;930.05;NaN;0.0;27.664516;;9 / 30;11709;2022-03-07 02:05:12:707
-2.2759;2.5917;9.1977;-2.2739;2.5632;9.1886;-0.011;-0.0187;0.0102;-8.0E-4;-0.0038;0.0014;1.0;-0.75;-23.91;-33.69;147.91;-15.18;13.91;2.0;55.69995;-4.091983;930.05;NaN;0.0;27.664516;;9 / 30;11810;2022-03-07 02:05:12:808
-2.289;2.575;9.2252;-2.2725;2.5641;9.1887;-5.0E-4;0.0047;-0.0074;0.0029;-8.0E-4;5.0E-4;1.0;-0.75;-23.87;-33.75;147.97;-15.16;13.89;2.0;55.69995;-4.091983;930.05;NaN;0.0;27.664516;;9 / 30;11908;2022-03-07 02:05:12:906
-2.289;2.5834;9.1977;-2.2721;2.5653;9.1884;-0.0051;-0.0027;0.0014;0.0027;-8.0E-4;0.0;1.0;-0.75;-23.87;-33.75;147.97;-15.16;13.89;2.0;55.69995;-4.091983;930.05;NaN;0.0;27.664516;;9 / 30;12009;2022-03-07 02:05:13:007
-2.2926;2.5579;9.2169;-2.2729;2.5672;9.1877;-0.0076;0.0071;-0.0024;0.0027;-8.0E-4;0.0;1.0;-0.86;-23.74;-33.81;147.96;-15.16;13.89;2.0;55.69995;-4.091983;930.05;NaN;0.0;27.664516;;9 / 30;12108;2022-03-07 02:05:13:106
-2.2842;2.5738;9.2085;-2.2745;2.5661;9.1876;-0.013;-0.01;0.0;0.002;-5.0E-4;2.0E-4;1.0;-0.86;-23.74;-33.81;147.96;-15.16;13.89;2.0;55.69995;-4.091983;930.05;NaN;0.0;27.664516;;9 / 30;12209;2022-03-07 02:05:13:207
-2.2854;2.5738;9.1941;-2.2761;2.5669;9.187;-0.0036;-0.007;-4.0E-4;0.0014;-2.0E-4;-2.0E-4;1.0;-1.18;-23.62;-33.69;147.93;-15.17;13.9;2.0;55.69995;-4.091983;930.05;NaN;0.0;27.664516;;9 / 30;12309;2022-03-07 02:05:13:307
-2.2854;2.5627;9.1929;-2.2771;2.5682;9.1864;-0.0099;-0.0057;-0.0024;0.0014;-2.0E-4;0.0;1.0;-1.35;-23.57;-33.69;147.93;-15.17;13.9;2.0;55.69995;-4.091983;930.05;NaN;0.0;27.664516;;9 / 30;12409;2022-03-07 02:05:13:407
-2.2842;2.5543;9.2216;-2.2771;2.5682;9.1864;-0.0099;-0.0057;-0.0024;0.0014;-2.0E-4;0.0;1.0;-1.29;-23.74;-33.41;149.01;-15.18;13.92;2.0;55.69995;-4.091983;930.05;NaN;0.0;27.664516;;9 / 30;12509;2022-03-07 02:05:13:507
-2.2902;2.5965;9.2192;-2.2784;2.5696;9.1856;-0.0055;0.001;7.0E-4;0.0031;-2.0E-4;-2.0E-4;1.0;-1.29;-23.74;-33.41;149.01;-15.18;13.92;2.0;55.699944;-4.091972;929.91;NaN;0.0;27.664516;;9 / 30;12609;2022-03-07 02:05:13:607
-2.2974;2.5774;9.1857;-2.2795;2.5716;9.1848;-0.0035;0.0096;0.0039;-0.0014;-0.0012;-3.0E-4;1.0;-1.35;-23.74;-33.37;148.99;-15.19;13.93;2.0;55.699944;-4.091972;929.91;NaN;0.0;27.664516;;9 / 30;12709;2022-03-07 02:05:13:707
-2.2878;2.5762;9.2001;-2.2815;2.5712;9.1845;-0.0106;-0.0061;0.0039;8.0E-4;-0.002;0.0011;1.0;-1.35;-23.74;-33.37;148.99;-15.19;13.93;2.0;55.699944;-4.091972;929.91;NaN;0.0;27.664516;;9 / 30;12809;2022-03-07 02:05:13:807
-2.289;2.5726;9.1977;-2.281;2.5718;9.1844;-0.0085;2.0E-4;-6.0E-4;8.0E-4;-0.002;0.0011;1.0;-0.79;-23.53;-33.43;148.95;-15.2;13.95;2.0;55.699944;-4.091972;929.91;NaN;0.0;27.664516;;9 / 30;12908;2022-03-07 02:05:13:906
-2.2962;2.5702;9.1929;-2.2807;2.5709;9.1847;-0.0051;-0.0073;-0.0015;-6.0E-4;-0.0024;0.0;1.0;-0.81;-23.59;-33.43;148.95;-15.2;13.95;2.0;55.699944;-4.091972;929.91;NaN;0.0;27.664516;;9 / 30;13009;2022-03-07 02:05:14:007
-2.2914;2.5738;9.1857;-2.2808;2.5717;9.1845;-0.0053;-2.0E-4;-0.0031;3.0E-4;-0.0011;3.0E-4;1.0;-0.84;-23.32;-33.51;146.04;-15.2;13.95;2.0;55.699944;-4.091972;929.91;NaN;0.0;27.664516;;9 / 30;13108;2022-03-07 02:05:14:106
-2.3177;2.5714;9.2001;-2.2808;2.5717;9.1845;-0.0053;-2.0E-4;-0.0031;0.0014;-2.0E-4;5.0E-4;1.0;-0.84;-23.32;-33.51;146.04;-15.2;13.95;2.0;55.699944;-4.091972;929.91;NaN;0.0;27.664516;;9 / 30;13208;2022-03-07 02:05:14:206
-2.2902;2.5651;9.1929;-2.282;2.5717;9.1842;-0.0052;-0.0078;-0.0022;0.0014;-2.0E-4;5.0E-4;1.0;-1.11;-23.72;-33.41;148.94;-15.2;13.95;2.0;55.699944;-4.091972;929.91;NaN;0.0;27.664516;;9 / 30;13309;2022-03-07 02:05:14:307
-2.2962;2.5651;9.2037;-2.2844;2.5734;9.1831;-0.004;-0.0012;0.001;6.0E-4;5.0E-4;3.0E-4;1.0;-1.11;-23.72;-33.41;148.94;-15.2;13.95;2.0;55.699944;-4.091972;929.91;NaN;0.0;27.664516;;9 / 30;13408;2022-03-07 02:05:14:406
-2.295;2.5917;9.2157;-2.2866;2.5739;9.1824;-0.0025;-0.0101;2.0E-4;5.0E-4;-0.0015;6.0E-4;1.0;-1.52;-23.81;-33.81;145.25;-15.21;13.97;2.0;55.699944;-4.091972;929.91;NaN;0.0;27.664516;;8 / 30;13508;2022-03-07 02:05:14:506
-2.3261;2.6001;9.1917;-2.2877;2.5744;9.182;-0.008;-0.0075;-0.006;-0.0021;-0.0023;6.0E-4;1.0;-1.41;-23.72;-33.88;145.25;-15.21;13.97;2.0;55.69994;-4.091952;928.08;NaN;0.0;24.206451;;8 / 30;13608;2022-03-07 02:05:14:606
-2.2926;2.581;9.1965;-2.2869;2.5735;9.1825;-0.0214;0.0019;-0.0103;-0.0021;-0.0023;6.0E-4;1.0;-1.26;-23.64;-33.82;147.74;-15.22;13.99;2.0;55.69994;-4.091952;928.08;NaN;0.0;24.206451;;8 / 30;13708;2022-03-07 02:05:14:706
-2.3106;2.5702;9.2157;-2.2868;2.5724;9.1828;-0.0107;-0.0085;8.0E-4;5.0E-4;-0.0011;5.0E-4;1.0;-1.26;-23.64;-33.82;147.74;-15.22;13.99;2.0;55.69994;-4.091952;928.08;NaN;0.0;24.206451;;8 / 30;13809;2022-03-07 02:05:14:807
-2.3022;2.5798;9.2085;-2.2861;2.5744;9.1824;0.0027;0.0025;-0.0152;0.0021;-2.0E-4;8.0E-4;1.0;-1.05;-23.42;-33.73;145.97;-15.21;13.98;2.0;55.69994;-4.091952;928.08;NaN;0.0;24.206451;;8 / 30;13909;2022-03-07 02:05:14:907
-2.3058;2.5663;9.2037;-2.2861;2.5744;9.1824;0.0027;0.0025;-0.0152;0.0012;-6.0E-4;5.0E-4;1.0;-0.99;-23.42;-33.56;145.97;-15.21;13.98;2.0;55.69994;-4.091952;928.08;NaN;0.0;24.206451;;8 / 30;14009;2022-03-07 02:05:15:007
-2.2807;2.5881;9.1929;-2.2881;2.5745;9.1819;-0.0127;-0.007;0.0016;0.0012;-6.0E-4;5.0E-4;1.0;-1.09;-23.4;-33.66;145.94;-15.22;13.99;2.0;55.69994;-4.091952;928.08;NaN;0.0;24.206451;;8 / 30;14109;2022-03-07 02:05:15:107
-2.3106;2.6037;9.1798;-2.2887;2.5754;9.1815;6.0E-4;-0.0038;0.0;0.004;0.0021;2.0E-4;1.0;-1.09;-23.4;-33.66;145.94;-15.22;13.99;2.0;55.69994;-4.091952;928.08;NaN;0.0;24.206451;;8 / 30;14209;2022-03-07 02:05:15:207
-2.2902;2.5726;9.2085;-2.2906;2.5776;9.1804;-0.0158;0.0059;-0.008;3.0E-4;-0.0018;-2.0E-4;1.0;-0.88;-23.46;-33.75;145.92;-15.23;14.0;2.0;55.69994;-4.091952;928.08;NaN;0.0;24.206451;;8 / 30;14308;2022-03-07 02:05:15:306
-2.3082;2.575;9.2073;-2.2906;2.5764;9.1807;0.0;-0.0095;-0.0033;9.0E-4;-3.0E-4;5.0E-4;1.0;-0.88;-23.46;-33.75;145.92;-15.23;14.0;2.0;55.69994;-4.091952;928.08;NaN;0.0;24.206451;;8 / 30;14408;2022-03-07 02:05:15:406
-2.3082;2.575;9.2169;-2.291;2.5759;9.1808;-0.0126;-0.0083;6.0E-4;9.0E-4;-3.0E-4;5.0E-4;1.0;-1.16;-23.57;-33.77;147.7;-15.23;14.01;2.0;55.69994;-4.091952;928.08;NaN;0.0;24.206451;;8 / 30;14508;2022-03-07 02:05:15:506
-2.3106;2.5786;9.1977;-2.2891;2.5758;9.1813;5.0E-4;0.0016;-0.01;-2.0E-4;-0.0029;-2.0E-4;1.0;-1.16;-23.57;-33.77;147.7;-15.23;14.01;2.0;55.69994;-4.091952;928.08;NaN;0.0;24.206451;;8 / 30;14609;2022-03-07 02:05:15:607
-2.3154;2.581;9.2181;-2.2876;2.5744;9.182;-0.0015;-0.0069;7.0E-4;0.0;-0.0032;3.0E-4;1.0;-0.71;-23.49;-33.51;145.92;-15.23;14.0;2.0;55.69994;-4.091952;928.08;NaN;0.0;24.206451;;8 / 30;14709;2022-03-07 02:05:15:707
-2.3154;2.581;9.2181;-2.2876;2.5744;9.182;-0.0015;-0.0069;7.0E-4;-2.0E-4;-0.0012;3.0E-4;1.0;-0.71;-23.49;-33.51;145.92;-15.23;14.0;2.0;55.69994;-4.091952;928.08;NaN;0.0;24.206451;;8 / 30;14809;2022-03-07 02:05:15:807
-2.3022;2.5822;9.1977;-2.2865;2.5737;9.1825;7.0E-4;-0.0028;-0.0105;-2.0E-4;-0.0012;3.0E-4;1.0;-1.07;-23.38;-33.64;145.94;-15.22;13.99;2.0;55.69994;-4.091952;928.08;NaN;0.0;24.206451;;8 / 30;14909;2022-03-07 02:05:15:907
-2.3034;2.5881;9.2061;-2.2844;2.573;9.1832;-0.0016;-0.0043;0.0139;-9.0E-4;-0.0024;5.0E-4;1.0;-0.9;-23.59;-33.66;145.94;-15.22;13.99;2.0;55.69994;-4.091952;928.08;NaN;0.0;24.206451;;8 / 30;15008;2022-03-07 02:05:16:006
-2.2974;2.5762;9.1905;-2.2882;2.5745;9.1819;-0.0062;-0.007;-0.0022;0.0061;0.0044;0.0026;1.0;-1.07;-23.7;-33.94;147.74;-15.22;13.99;2.0;55.69994;-4.091952;928.08;NaN;0.0;24.206451;;8 / 30;15108;2022-03-07 02:05:16:106
-2.2926;2.5639;9.2037;-2.2913;2.5777;9.1802;0.0031;-0.014;0.004;0.0029;0.0014;0.0014;1.0;-1.07;-23.7;-33.94;147.74;-15.22;13.99;2.0;55.69994;-4.091952;928.08;NaN;0.0;24.206451;;8 / 30;15209;2022-03-07 02:05:16:207
-2.2974;2.5687;9.2037;-2.2932;2.5788;9.1794;9.0E-4;-0.0126;-6.0E-4;0.0029;0.0014;0.0014;1.0;-1.22;-23.64;-33.71;147.68;-15.24;14.01;2.0;55.69994;-4.091952;928.08;NaN;0.0;24.206451;;8 / 30;15308;2022-03-07 02:05:16:306
-2.295;2.5555;9.2001;-2.293;2.5784;9.1796;-0.0055;-0.0108;0.0012;0.002;-3.0E-4;3.0E-4;1.0;-1.03;-23.57;-33.6;147.68;-15.24;14.01;2.0;55.69994;-4.091952;928.08;NaN;0.0;24.206451;;8 / 30;15408;2022-03-07 02:05:16:406
-2.3106;2.5726;9.2061;-2.293;2.5784;9.1796;-0.0055;-0.0108;0.0012;0.0018;-2.0E-4;9.0E-4;1.0;-0.96;-23.4;-33.54;145.86;-15.24;14.02;2.0;55.69994;-4.091952;928.08;NaN;0.0;24.206451;;9 / 30;15508;2022-03-07 02:05:16:506
-2.2962;2.5798;9.2073;-2.292;2.5774;9.1801;-0.0024;-0.007;0.0051;0.0037;8.0E-4;0.0014;1.0;-0.96;-23.4;-33.54;145.86;-15.24;14.02;2.0;55.699944;-4.091976;928.66;NaN;0.0;24.206451;;9 / 30;15609;2022-03-07 02:05:16:607
-2.3034;2.5977;9.2157;-2.2935;2.5784;9.1795;-0.0086;-0.0119;-4.0E-4;0.0037;8.0E-4;0.0014;1.0;-0.94;-23.27;-33.45;147.07;-15.24;14.02;2.0;55.699944;-4.091976;928.66;NaN;0.0;24.206451;;9 / 30;15708;2022-03-07 02:05:16:706
-2.2974;2.5687;9.1941;-2.2949;2.5784;9.1791;-0.007;-0.0073;0.0045;0.0011;8.0E-4;5.0E-4;1.0;-0.94;-23.27;-33.45;147.07;-15.24;14.02;2.0;55.699944;-4.091976;928.66;NaN;0.0;24.206451;;9 / 30;15809;2022-03-07 02:05:16:807
-2.2974;2.5834;9.1941;-2.2957;2.5795;9.1786;-0.0063;-0.0075;0.0053;0.0027;-9.0E-4;6.0E-4;1.0;-0.9;-23.76;-33.64;147.64;-15.24;14.04;2.0;55.699944;-4.091976;928.66;NaN;0.0;24.206451;;9 / 30;15908;2022-03-07 02:05:16:906
-2.3118;2.5798;9.1989;-2.2952;2.5801;9.1785;-3.0E-4;-0.0074;0.0023;0.0017;-8.0E-4;9.0E-4;1.0;-0.9;-23.76;-33.64;147.64;-15.24;14.04;2.0;55.699944;-4.091976;928.66;NaN;0.0;24.206451;;9 / 30;16008;2022-03-07 02:05:17:006
-2.301;2.5822;9.1989;-2.295;2.5813;9.1782;0.0014;-0.003;0.0016;0.0017;-8.0E-4;9.0E-4;1.0;-0.84;-23.96;-33.73;147.63;-15.25;14.04;2.0;55.699944;-4.091976;928.66;NaN;0.0;24.206451;;9 / 30;16108;2022-03-07 02:05:17:106
-2.3034;2.5726;9.1989;-2.2955;2.5804;9.1784;-0.0036;-0.0137;0.0032;8.0E-4;-2.0E-4;0.0011;1.0;-0.84;-23.96;-33.73;147.63;-15.25;14.04;2.0;55.699944;-4.091976;928.66;NaN;0.0;24.206451;;9 / 30;16209;2022-03-07 02:05:17:207
-2.3177;2.5977;9.1917;-2.2955;2.5804;9.1784;-0.0036;-0.0137;0.0032;0.0014;3.0E-4;6.0E-4;1.0;-0.81;-24.22;-33.47;148.75;-15.26;14.04;2.0;55.699944;-4.091976;928.66;NaN;0.0;24.206451;;9 / 30;16308;2022-03-07 02:05:17:306
-2.2986;2.5714;9.1893;-2.2964;2.5805;9.1781;-0.0099;-0.0022;0.0014;0.0026;2.0E-4;8.0E-4;1.0;-0.81;-24.22;-33.47;148.75;-15.26;14.04;2.0;55.699944;-4.091976;928.66;NaN;0.0;24.206451;;9 / 30;16409;2022-03-07 02:05:17:407
-2.3082;2.5726;9.1869;-2.2973;2.5802;9.178;-0.0031;-0.0154;0.0016;0.0026;2.0E-4;8.0E-4;1.0;-0.86;-23.79;-33.49;148.74;-15.26;14.05;2.0;55.699944;-4.091976;928.66;NaN;0.0;24.206451;;10 / 30;16508;2022-03-07 02:05:17:506
-2.301;2.5857;9.2013;-2.2982;2.5796;9.1779;-0.0079;-0.0063;-0.0086;0.0024;5.0E-4;0.0;1.0;-0.92;-23.72;-33.58;148.74;-15.26;14.05;2.0;55.699944;-4.091976;928.66;NaN;0.0;24.206451;;10 / 30;16609;2022-03-07 02:05:17:607
-2.307;2.5834;9.1905;-2.2963;2.5802;9.1782;0.0016;-0.0015;0.0015;8.0E-4;-0.0021;5.0E-4;1.0;-1.03;-23.46;-33.94;145.81;-15.25;14.05;2.0;55.699944;-4.091976;928.66;NaN;0.0;24.206451;;10 / 30;16709;2022-03-07 02:05:17:707
-2.3106;2.5651;9.2037;-2.2974;2.5808;9.1778;-0.007;-4.0E-4;5.0E-4;-5.0E-4;-0.0011;2.0E-4;1.0;-1.03;-23.46;-33.94;145.81;-15.25;14.05;2.0;55.699944;-4.091976;928.66;NaN;0.0;24.206451;;10 / 30;16808;2022-03-07 02:05:17:806
-2.3118;2.5738;9.2037;-2.297;2.5791;9.1784;-0.0054;-0.0099;-0.0038;-5.0E-4;-0.0011;2.0E-4;1.0;-1.16;-23.23;-33.64;145.79;-15.26;14.05;2.0;55.699944;-4.091976;928.66;NaN;0.0;24.206451;;10 / 30;16909;2022-03-07 02:05:17:907
-2.3082;2.581;9.2049;-2.2958;2.5798;9.1785;-0.004;8.0E-4;0.004;0.0017;-0.0024;8.0E-4;1.0;-1.03;-23.44;-33.41;145.79;-15.26;14.05;2.0;55.699944;-4.091976;928.66;NaN;0.0;24.206451;;10 / 30;17009;2022-03-07 02:05:18:007
-2.3177;2.5651;9.2169;-2.2958;2.5798;9.1785;-0.004;8.0E-4;0.004;-5.0E-4;-0.002;3.0E-4;1.0;-1.07;-23.31;-33.24;147.01;-15.25;14.04;2.0;55.699944;-4.091976;928.66;NaN;0.0;24.206451;;10 / 30;17109;2022-03-07 02:05:18:107
-2.3154;2.5822;9.2145;-2.2961;2.5787;9.1787;-0.0096;-0.019;-0.0031;9.0E-4;-0.0024;8.0E-4;1.0;-1.07;-23.31;-33.24;147.01;-15.25;14.04;2.0;55.699944;-4.091976;928.66;NaN;0.0;24.206451;;10 / 30;17209;2022-03-07 02:05:18:207
-2.3058;2.5627;9.1929;-2.2949;2.5791;9.1789;-0.004;0.0057;0.0071;9.0E-4;-0.0024;8.0E-4;1.0;-0.92;-23.44;-32.87;147.02;-15.25;14.04;2.0;55.699944;-4.091976;928.66;NaN;0.0;24.206451;;10 / 30;17308;2022-03-07 02:05:18:306
-2.3154;2.5726;9.2133;-2.2945;2.5793;9.1789;-0.0113;0.0064;6.0E-4;2.0E-4;-0.002;8.0E-4;1.0;-0.92;-23.44;-32.87;147.02;-15.25;14.04;2.0;55.699944;-4.091976;928.66;NaN;0.0;24.206451;;10 / 30;17408;2022-03-07 02:05:18:406
-2.313;2.5834;9.1905;-2.2953;2.5778;9.1791;-0.0058;-0.0075;3.0E-4;0.0012;-0.0021;2.0E-4;1.0;-0.92;-23.44;-33.17;147.03;-15.25;14.03;2.0;55.699944;-4.091976;928.66;NaN;0.0;24.206451;;10 / 30;17509;2022-03-07 02:05:18:507
-2.3046;2.5774;9.2001;-2.2942;2.5787;9.1792;-0.0042;-0.0045;0.0058;0.0012;3.0E-4;9.0E-4;1.0;-0.86;-23.49;-33.26;147.03;-15.25;14.03;2.0;55.69995;-4.091985;932.13;NaN;0.0;20.748388;;10 / 30;17609;2022-03-07 02:05:18:607
-2.3046;2.575;9.1941;-2.2948;2.5779;9.1793;-0.012;-0.0095;-5.0E-4;0.0012;3.0E-4;9.0E-4;1.0;-0.94;-23.34;-33.43;147.04;-15.25;14.03;2.0;55.69995;-4.091985;932.13;NaN;0.0;20.748388;;10 / 30;17709;2022-03-07 02:05:18:707
-2.3082;2.5786;9.1989;-2.2934;2.578;9.1796;-0.0066;8.0E-4;-0.0021;2.0E-4;-0.0029;8.0E-4;1.0;-0.94;-23.34;-33.43;147.04;-15.25;14.03;2.0;55.69995;-4.091985;932.13;NaN;0.0;20.748388;;10 / 30;17809;2022-03-07 02:05:18:807
-2.3082;2.5786;9.1989;-2.2934;2.578;9.1796;-0.0066;8.0E-4;-0.0021;-9.0E-4;-0.0032;0.0;1.0;-0.83;-23.32;-33.37;147.05;-15.24;14.03;2.0;55.69995;-4.091985;932.13;NaN;0.0;20.748388;;10 / 30;17910;2022-03-07 02:05:18:908
-2.313;2.5786;9.2061;-2.292;2.5762;9.1804;-0.0058;-0.0061;-0.008;3.0E-4;-0.0023;8.0E-4;1.0;-0.94;-23.44;-33.53;147.05;-15.24;14.03;2.0;55.69995;-4.091985;932.13;NaN;0.0;20.748388;;10 / 30;18008;2022-03-07 02:05:19:006
-2.2926;2.5869;9.1881;-2.2907;2.5757;9.1809;-0.0054;0.0011;0.0025;3.0E-4;-0.0023;8.0E-4;1.0;-0.99;-23.61;-33.84;147.7;-15.23;14.01;2.0;55.69995;-4.091985;932.13;NaN;0.0;20.748388;;10 / 30;18108;2022-03-07 02:05:19:106
-2.301;2.5869;9.1953;-2.2908;2.5749;9.1811;-0.0056;-5.0E-4;-0.0121;0.0012;-0.0017;8.0E-4;1.0;-0.99;-23.61;-33.84;147.7;-15.23;14.01;2.0;55.69995;-4.091985;932.13;NaN;0.0;20.748388;;10 / 30;18209;2022-03-07 02:05:19:207
-2.3142;2.5762;9.2192;-2.2878;2.5724;9.1825;-0.0028;-7.0E-4;-0.0048;-2.0E-4;-5.0E-4;2.0E-4;1.0;-1.12;-23.76;-34.01;147.71;-15.22;14.01;2.0;55.69995;-4.091985;932.13;NaN;0.0;20.748388;;10 / 30;18309;2022-03-07 02:05:19:307
-2.3034;2.5774;9.2085;-2.2872;2.5716;9.1829;0.0079;-0.0112;-0.0062;5.0E-4;-0.002;3.0E-4;1.0;-1.12;-23.76;-34.01;147.71;-15.22;14.01;2.0;55.69995;-4.091985;932.13;NaN;0.0;20.748388;;10 / 30;18409;2022-03-07 02:05:19:407
-2.289;2.5738;9.1941;-2.2864;2.5701;9.1835;-0.0054;-0.0052;0.0018;5.0E-4;-0.002;3.0E-4;1.0;-1.24;-23.78;-34.22;147.77;-15.2;13.99;2.0;55.69995;-4.091985;932.13;NaN;0.0;20.748388;;10 / 29;18508;2022-03-07 02:05:19:506
-2.2878;2.5651;9.1929;-2.2864;2.5701;9.1835;-0.0054;-0.0052;0.0018;0.0;-0.0024;6.0E-4;1.0;-1.24;-23.78;-34.22;147.77;-15.2;13.99;2.0;55.699963;-4.091988;928.96;NaN;0.0;17.290323;;10 / 29;18609;2022-03-07 02:05:19:607
-2.2962;2.5615;9.2085;-2.2855;2.5701;9.1837;0.0014;-0.002;-6.0E-4;-8.0E-4;-0.0031;3.0E-4;1.0;-1.2;-23.53;-34.39;147.79;-15.19;13.98;2.0;55.699963;-4.091988;928.96;NaN;0.0;17.290323;;10 / 29;18709;2022-03-07 02:05:19:707
-2.295;2.5714;9.2252;-2.2835;2.5683;9.1848;-0.0042;-0.011;0.0051;-3.0E-4;-0.0032;5.0E-4;1.0;-1.2;-23.53;-34.39;147.79;-15.19;13.98;2.0;55.699963;-4.091988;928.96;NaN;0.0;17.290323;;10 / 29;18809;2022-03-07 02:05:19:807
-2.3022;2.5675;9.2145;-2.2818;2.5675;9.1854;-0.0055;1.0E-4;0.0022;-3.0E-4;-0.0032;5.0E-4;1.0;-1.16;-23.49;-34.05;146.04;-15.18;13.96;2.0;55.699963;-4.091988;928.96;NaN;0.0;17.290323;;10 / 29;18909;2022-03-07 02:05:19:907
-2.295;2.5567;9.2348;-2.2817;2.5677;9.1854;0.0021;-0.007;-0.0079;0.0014;-8.0E-4;9.0E-4;1.0;-1.16;-23.49;-34.05;146.04;-15.18;13.96;2.0;55.699963;-4.091988;928.96;NaN;0.0;17.290323;;10 / 29;19009;2022-03-07 02:05:20:007
-2.2962;2.5663;9.1822;-2.2827;2.5674;9.1852;-0.0081;-0.0083;0.006;0.0017;0.0015;8.0E-4;1.0;-1.28;-23.51;-33.88;147.85;-15.18;13.95;2.0;55.699963;-4.091988;928.96;NaN;0.0;17.290323;;10 / 29;19109;2022-03-07 02:05:20:107
-2.2854;2.5702;9.1786;-2.2827;2.5687;9.1848;-0.004;-0.0092;-0.0061;0.0024;-0.0012;0.0012;1.0;-1.28;-23.51;-33.88;147.85;-15.18;13.95;2.0;55.699963;-4.091988;928.96;NaN;0.0;17.290323;;10 / 29;19209;2022-03-07 02:05:20:207
-2.295;2.5762;9.1881;-2.2831;2.5693;9.1846;-0.0108;-6.0E-4;-0.0039;0.0024;-0.0012;0.0012;1.0;-1.37;-23.53;-34.09;147.83;-15.19;13.96;2.0;55.699963;-4.091988;928.96;NaN;0.0;17.290323;;10 / 29;19309;2022-03-07 02:05:20:307
-2.2866;2.5726;9.2025;-2.2831;2.5693;9.1846;-0.0108;-6.0E-4;-0.0039;9.0E-4;-2.0E-4;9.0E-4;1.0;-1.29;-23.74;-34.24;147.83;-15.19;13.96;2.0;55.699963;-4.091988;928.96;NaN;0.0;17.290323;;10 / 29;19409;2022-03-07 02:05:20:407
-2.289;2.581;9.2133;-2.2838;2.5705;9.1841;-0.0081;-0.0023;4.0E-4;0.0024;2.0E-4;9.0E-4;1.0;-1.16;-23.83;-34.18;147.81;-15.2;13.96;2.0;55.699963;-4.091988;928.96;NaN;0.0;17.290323;;10 / 30;19509;2022-03-07 02:05:20:507
-2.2866;2.575;9.1941;-2.2853;2.5718;9.1833;-0.0107;-0.0022;9.0E-4;0.0017;0.0014;0.0011;1.0;-1.16;-23.83;-34.18;147.81;-15.2;13.96;2.0;55.69996;-4.09198;928.24;NaN;0.0;17.290323;;10 / 30;19609;2022-03-07 02:05:20:607
-2.295;2.581;9.1774;-2.2861;2.5716;9.1832;-0.0106;-0.0106;0.0121;0.0017;0.0014;0.0011;1.0;-1.42;-23.61;-34.52;146.65;-15.2;13.97;2.0;55.69996;-4.09198;928.24;NaN;0.0;17.290323;;10 / 30;19709;2022-03-07 02:05:20:707
-2.2711;2.5702;9.1941;-2.2865;2.5731;9.1827;-0.0031;-0.0127;0.0094;9.0E-4;-9.0E-4;5.0E-4;1.0;-1.42;-23.61;-34.52;146.65;-15.2;13.97;2.0;55.69996;-4.09198;928.24;NaN;0.0;17.290323;;10 / 30;19809;2022-03-07 02:05:20:807
-2.3058;2.5929;9.2001;-2.2876;2.5744;9.182;-0.0159;-0.0019;0.01;0.0024;-0.0027;9.0E-4;1.0;-1.31;-23.61;-34.28;147.76;-15.21;13.98;2.0;55.69996;-4.09198;928.24;NaN;0.0;17.290323;;10 / 30;19908;2022-03-07 02:05:20:906
-2.2914;2.5774;9.1977;-2.2864;2.575;9.1822;-8.0E-4;-0.0075;0.0022;0.002;-9.0E-4;9.0E-4;1.0;-1.31;-23.29;-34.28;147.76;-15.21;13.98;2.0;55.69996;-4.09198;928.24;NaN;0.0;17.290323;;10 / 30;20009;2022-03-07 02:05:21:007
-2.3034;2.5893;9.2001;-2.2872;2.576;9.1817;-0.0063;-7.0E-4;0.0035;0.002;-9.0E-4;9.0E-4;1.0;-1.31;-23.38;-34.39;145.95;-15.22;13.98;2.0;55.69996;-4.09198;928.24;NaN;0.0;17.290323;;10 / 30;20109;2022-03-07 02:05:21:107
-2.3034;2.5702;9.1989;-2.2872;2.576;9.1817;-0.0063;-7.0E-4;0.0035;2.0E-4;-6.0E-4;3.0E-4;1.0;-1.31;-23.38;-34.39;145.95;-15.22;13.98;2.0;55.69996;-4.09198;928.24;NaN;0.0;17.290323;;10 / 30;20208;2022-03-07 02:05:21:206
-2.2986;2.581;9.1869;-2.2877;2.5752;9.1818;-0.0107;-0.008;-0.0057;8.0E-4;-0.002;9.0E-4;1.0;-1.16;-23.55;-33.98;147.73;-15.23;13.99;2.0;55.69996;-4.09198;928.24;NaN;0.0;17.290323;;10 / 30;20309;2022-03-07 02:05:21:307
-2.2962;2.5834;9.1917;-2.2872;2.575;9.182;-0.0023;-0.0056;0.001;-3.0E-4;-0.0014;6.0E-4;1.0;-1.16;-23.55;-33.98;147.73;-15.23;13.99;2.0;55.69996;-4.09198;928.24;NaN;0.0;17.290323;;10 / 30;20409;2022-03-07 02:05:21:407
-2.301;2.5555;9.2192;-2.2877;2.5754;9.1817;-0.0053;-0.0049;-0.0072;-3.0E-4;-0.0014;6.0E-4;1.0;-1.18;-23.7;-33.96;147.74;-15.22;13.99;2.0;55.69996;-4.09198;928.24;NaN;0.0;17.290323;;10 / 30;20509;2022-03-07 02:05:21:507
-2.3058;2.5893;9.2001;-2.2875;2.5751;9.1819;4.0E-4;-0.0029;0.0;0.0012;-9.0E-4;3.0E-4;1.0;-1.18;-23.7;-33.96;147.74;-15.22;13.99;2.0;55.69996;-4.09198;928.24;NaN;0.0;17.290323;;10 / 30;20608;2022-03-07 02:05:21:606
-2.3118;2.5675;9.2097;-2.2912;2.576;9.1807;0.0021;-0.0133;-0.0041;0.0018;0.0011;6.0E-4;1.0;-1.01;-23.62;-33.77;147.74;-15.22;13.99;2.0;55.69996;-4.09198;928.24;NaN;0.0;17.290323;;10 / 30;20708;2022-03-07 02:05:21:706
-2.3106;2.575;9.2324;-2.2927;2.5774;9.1799;-0.0108;-0.0059;0.0092;0.0014;0.0;0.0011;1.0;-1.01;-23.62;-33.77;147.74;-15.22;13.99;2.0;55.69996;-4.09198;928.24;NaN;0.0;17.290323;;10 / 30;20809;2022-03-07 02:05:21:807
-2.295;2.5591;9.1965;-2.2927;2.5774;9.1799;-0.0108;-0.0059;0.0092;0.0014;0.0;0.0011;1.0;-0.79;-23.76;-34.01;147.67;-15.24;14.02;2.0;55.69996;-4.09198;928.24;NaN;0.0;17.290323;;10 / 30;20909;2022-03-07 02:05:21:907
-2.3118;2.5881;9.2204;-2.293;2.5778;9.1797;0.0012;-0.02;-0.0054;0.0024;-0.0012;8.0E-4;1.0;-0.83;-23.68;-33.92;147.67;-15.24;14.02;2.0;55.69996;-4.09198;928.24;NaN;0.0;17.290323;;10 / 30;21009;2022-03-07 02:05:22:007
-2.2998;2.5738;9.1869;-2.2929;2.5783;9.1796;-0.0076;-7.0E-4;0.0118;0.0011;-5.0E-4;8.0E-4;1.0;-0.9;-23.66;-33.98;147.66;-15.24;14.02;2.0;55.69996;-4.09198;928.24;NaN;0.0;17.290323;;10 / 30;21108;2022-03-07 02:05:22:106
-2.3082;2.5845;9.2121;-2.2925;2.5782;9.1797;-0.0052;-0.0133;-0.0026;5.0E-4;-0.002;6.0E-4;1.0;-0.9;-23.66;-33.98;147.66;-15.24;14.02;2.0;55.69996;-4.09198;928.24;NaN;0.0;17.290323;;10 / 30;21209;2022-03-07 02:05:22:207
-2.301;2.5822;9.1905;-2.2922;2.5771;9.1801;-0.0053;-0.0089;0.0034;5.0E-4;-0.002;6.0E-4;1.0;-0.9;-23.85;-34.05;147.67;-15.24;14.02;2.0;55.69996;-4.09198;928.24;NaN;0.0;17.290323;;10 / 30;21309;2022-03-07 02:05:22:307
-2.2962;2.6001;9.181;-2.2927;2.5776;9.1799;-0.0101;-0.006;0.0029;0.0021;-0.0011;8.0E-4;1.0;-0.84;-23.72;-34.22;147.67;-15.24;14.02;2.0;55.69996;-4.09198;928.24;NaN;0.0;17.290323;;10 / 30;21409;2022-03-07 02:05:22:407
-2.3142;2.5726;9.2049;-2.2937;2.5771;9.1797;-0.0139;-0.0112;-0.001;0.0011;2.0E-4;2.0E-4;1.0;-0.94;-23.59;-34.18;147.67;-15.24;14.02;2.0;55.69996;-4.09198;928.24;NaN;0.0;17.290323;;9 / 30;21508;2022-03-07 02:05:22:506
-2.2974;2.581;9.2216;-2.2931;2.5774;9.1798;-2.0E-4;-0.0033;0.0011;0.0015;-6.0E-4;6.0E-4;1.0;-0.94;-23.59;-34.18;147.67;-15.24;14.02;2.0;55.699966;-4.091985;923.47;NaN;0.0;34.580647;;9 / 30;21608;2022-03-07 02:05:22:606
-2.2902;2.5857;9.1822;-2.2931;2.5774;9.1798;-2.0E-4;-0.0033;0.0011;0.0015;-6.0E-4;6.0E-4;1.0;-1.16;-23.57;-34.24;147.67;-15.24;14.03;2.0;55.699966;-4.091985;923.47;NaN;0.0;34.580647;;9 / 30;21708;2022-03-07 02:05:22:706
-2.2866;2.5726;9.1869;-2.2934;2.5767;9.1799;-0.0095;-0.0087;-0.0029;9.0E-4;-0.0018;5.0E-4;1.0;-1.56;-23.49;-34.09;147.67;-15.24;14.03;2.0;55.699966;-4.091985;923.47;NaN;0.0;34.580647;;9 / 30;21808;2022-03-07 02:05:22:806
-2.307;2.5869;9.1989;-2.2905;2.5767;9.1807;-0.0021;-0.0037;-0.0054;-5.0E-4;-0.0035;6.0E-4;1.0;-1.67;-23.53;-34.09;145.17;-15.23;14.01;2.0;55.699966;-4.091985;923.47;NaN;0.0;34.580647;;9 / 30;21909;2022-03-07 02:05:22:907
-2.2914;2.575;9.1989;-2.2884;2.5747;9.1817;-0.0057;-0.001;-0.0041;8.0E-4;-0.0023;6.0E-4;1.0;-1.67;-23.53;-34.09;145.17;-15.23;14.01;2.0;55.699966;-4.091985;923.47;NaN;0.0;34.580647;;9 / 30;22008;2022-03-07 02:05:23:006
-2.2902;2.5762;9.2013;-2.2859;2.5742;9.1825;-0.009;-0.0046;0.0057;8.0E-4;-0.0023;6.0E-4;1.0;-1.42;-23.74;-34.29;147.73;-15.22;13.99;2.0;55.699966;-4.091985;923.47;NaN;0.0;34.580647;;9 / 30;22109;2022-03-07 02:05:23:107
-2.2998;2.5774;9.1953;-2.2838;2.5719;9.1837;-0.0035;-0.0095;0.0083;-6.0E-4;-0.0026;6.0E-4;1.0;-1.42;-23.74;-34.29;147.73;-15.22;13.99;2.0;55.699966;-4.091985;923.47;NaN;0.0;34.580647;;9 / 30;22208;2022-03-07 02:05:23:206
-2.289;2.5702;9.2085;-2.2836;2.5716;9.1838;-0.006;-0.0096;0.003;0.0014;-0.0012;3.0E-4;1.0;-1.28;-23.76;-34.11;147.8;-15.2;13.97;2.0;55.699966;-4.091985;923.47;NaN;0.0;34.580647;;9 / 30;22308;2022-03-07 02:05:23:306
-2.3177;2.5702;9.2013;-2.2844;2.5708;9.1838;-0.0147;-0.0109;-0.0015;6.0E-4;-0.0012;-2.0E-4;1.0;-1.28;-23.76;-34.11;147.8;-15.2;13.97;2.0;55.699966;-4.091985;923.47;NaN;0.0;34.580647;;9 / 30;22408;2022-03-07 02:05:23:406
-2.2962;2.5714;9.1953;-2.2844;2.5708;9.1838;-0.0147;-0.0109;-0.0015;6.0E-4;-0.0012;-2.0E-4;1.0;-1.05;-23.92;-33.92;147.8;-15.2;13.97;2.0;55.699966;-4.091985;923.47;NaN;0.0;34.580647;;8 / 30;22508;2022-03-07 02:05:23:506
-2.2938;2.5786;9.1953;-2.2818;2.5696;9.1848;-0.0072;-0.0075;0.0068;5.0E-4;-0.0034;6.0E-4;1.0;-1.33;-23.85;-34.05;147.8;-15.2;13.97;2.0;55.699986;-4.091996;917.43;NaN;0.0;34.580647;;8 / 30;22609;2022-03-07 02:05:23:607
-2.2831;2.5615;9.2037;-2.2799;2.5684;9.1856;-0.0074;-0.0088;8.0E-4;0.0;-0.0037;5.0E-4;1.0;-1.42;-23.74;-33.94;147.86;-15.18;13.94;2.0;55.699986;-4.091996;917.43;NaN;0.0;34.580647;;8 / 30;22709;2022-03-07 02:05:23:707
-2.2986;2.5702;9.2228;-2.2776;2.5669;9.1866;-7.0E-4;-0.0075;-0.0037;6.0E-4;-6.0E-4;3.0E-4;1.0;-1.42;-23.74;-33.94;147.86;-15.18;13.94;2.0;55.699986;-4.091996;917.43;NaN;0.0;34.580647;;8 / 30;22808;2022-03-07 02:05:23:806
-2.2831;2.5663;9.2264;-2.2778;2.5665;9.1867;-0.0052;-0.0035;0.0016;6.0E-4;-6.0E-4;3.0E-4;1.0;-1.46;-23.85;-33.98;147.9;-15.17;13.92;2.0;55.699986;-4.091996;917.43;NaN;0.0;34.580647;;8 / 30;22910;2022-03-07 02:05:23:908
-2.2902;2.5663;9.2025;-2.277;2.5668;9.1868;-0.0036;-0.0047;0.0062;0.0017;-9.0E-4;0.0012;1.0;-1.54;-23.4;-33.68;147.9;-15.17;13.92;2.0;55.699986;-4.091996;917.43;NaN;0.0;34.580647;;8 / 30;23008;2022-03-07 02:05:24:006
-2.3046;2.5726;9.1953;-2.2779;2.5671;9.1865;-0.0071;-0.0093;-0.0079;0.0012;6.0E-4;0.0;1.0;-1.37;-23.34;-33.45;147.3;-15.17;13.92;2.0;55.699986;-4.091996;917.43;NaN;0.0;34.580647;;8 / 30;23109;2022-03-07 02:05:24:107
-2.2926;2.5639;9.1786;-2.2779;2.5671;9.1865;-0.0071;-0.0093;-0.0079;0.0015;-2.0E-4;0.0011;1.0;-1.37;-23.34;-33.45;147.3;-15.17;13.92;2.0;55.699986;-4.091996;917.43;NaN;0.0;34.580647;;8 / 30;23208;2022-03-07 02:05:24:206
-2.2974;2.5675;9.2025;-2.2796;2.5667;9.1862;-0.0163;-0.0045;0.0073;0.0015;-2.0E-4;0.0011;1.0;-1.35;-23.61;-33.99;147.88;-15.17;13.94;2.0;55.699986;-4.091996;917.43;NaN;0.0;34.580647;;8 / 30;23309;2022-03-07 02:05:24:307
-2.2938;2.5591;9.1857;-2.2812;2.5685;9.1853;-0.011;-0.0068;-0.0034;0.0017;-0.0012;9.0E-4;1.0;-1.35;-23.61;-33.99;147.88;-15.17;13.94;2.0;55.699986;-4.091996;917.43;NaN;0.0;34.580647;;8 / 30;23408;2022-03-07 02:05:24:406
-2.2866;2.5774;9.2025;-2.282;2.5683;9.1851;-0.0105;-0.0074;0.0165;-3.0E-4;0.0;6.0E-4;1.0;-1.31;-23.51;-34.05;147.85;-15.18;13.95;2.0;55.699986;-4.091996;917.43;NaN;0.0;34.580647;;7 / 29;23508;2022-03-07 02:05:24:506
-2.2998;2.581;9.2121;-2.2829;2.5696;9.1845;-0.0031;-0.0056;-0.0028;0.0021;2.0E-4;9.0E-4;1.0;-1.31;-23.51;-34.05;147.85;-15.18;13.95;2.0;55.699986;-4.091996;917.43;NaN;0.0;34.580647;;7 / 29;23608;2022-03-07 02:05:24:606
-2.2938;2.5615;9.2001;-2.2847;2.5712;9.1836;-0.0072;-0.0049;0.001;0.0021;2.0E-4;9.0E-4;1.0;-1.28;-23.7;-34.09;147.82;-15.19;13.96;2.0;55.699986;-4.091996;917.43;NaN;0.0;34.580647;;7 / 29;23710;2022-03-07 02:05:24:708
-2.2926;2.5798;9.2073;-2.2859;2.5705;9.1835;-0.0107;-0.0063;8.0E-4;0.0012;-9.0E-4;5.0E-4;1.0;-1.11;-23.46;-33.64;147.82;-15.19;13.96;2.0;55.699986;-4.091996;917.43;NaN;0.0;34.580647;;7 / 29;23808;2022-03-07 02:05:24:806
-2.3022;2.5639;9.2216;-2.2857;2.572;9.1832;-0.0035;-0.0028;-0.0084;0.0012;-0.0011;2.0E-4;1.0;-0.97;-23.42;-33.45;147.18;-15.2;13.98;2.0;55.699986;-4.091996;917.43;NaN;0.0;34.580647;;7 / 29;23908;2022-03-07 02:05:24:906
-2.2938;2.5702;9.1917;-2.2857;2.572;9.1832;-0.0035;-0.0028;-0.0084;0.0011;2.0E-4;0.0011;1.0;-0.97;-23.42;-33.45;147.18;-15.2;13.98;2.0;55.699986;-4.091996;917.43;NaN;0.0;34.580647;;7 / 29;24009;2022-03-07 02:05:25:007
-2.2974;2.5675;9.2097;-2.287;2.5723;9.1828;-0.0079;-0.0022;0.0;0.0011;2.0E-4;0.0011;1.0;-0.94;-23.7;-33.64;147.78;-15.21;13.98;2.0;55.699986;-4.091996;917.43;NaN;0.0;34.580647;;7 / 29;24108;2022-03-07 02:05:25:106
-2.3082;2.5774;9.2276;-2.2872;2.5726;9.1826;-0.0017;-0.0069;-0.0103;0.0011;-0.0023;0.0011;1.0;-1.12;-23.7;-33.58;147.78;-15.21;13.98;2.0;55.699986;-4.091996;917.43;NaN;0.0;34.580647;;7 / 29;24209;2022-03-07 02:05:25:207
-2.2938;2.581;9.1857;-2.2877;2.5738;9.1822;-0.0064;2.0E-4;0.0033;6.0E-4;-0.0012;5.0E-4;1.0;-1.14;-23.64;-33.92;147.75;-15.22;13.99;2.0;55.699986;-4.091996;917.43;NaN;0.0;34.580647;;7 / 29;24309;2022-03-07 02:05:25:307
-2.2938;2.581;9.1857;-2.2884;2.5744;9.1818;-0.0052;-0.0012;-0.0039;8.0E-4;-8.0E-4;0.0;1.0;-1.14;-23.64;-33.92;147.75;-15.22;13.99;2.0;55.699986;-4.091996;917.43;NaN;0.0;34.580647;;7 / 29;24408;2022-03-07 02:05:25:406
-2.295;2.5917;9.1881;-2.289;2.5727;9.1822;-0.0153;-0.0068;0.0069;8.0E-4;-8.0E-4;0.0;1.0;-1.05;-23.79;-34.03;147.74;-15.22;13.99;2.0;55.699986;-4.091996;917.43;NaN;0.0;34.580647;;8 / 30;24508;2022-03-07 02:05:25:506
-2.289;2.5627;9.1989;-2.2885;2.5752;9.1816;-0.0066;0.0114;-0.0012;0.002;-6.0E-4;8.0E-4;1.0;-1.05;-23.79;-34.03;147.74;-15.22;13.99;2.0;55.699986;-4.091996;917.43;NaN;0.0;34.580647;;8 / 30;24608;2022-03-07 02:05:25:606
-2.3082;2.5977;9.1941;-2.2892;2.573;9.182;-0.0234;-0.016;0.0083;0.0018;-0.0015;3.0E-4;1.0;-0.88;-23.49;-34.01;145.93;-15.22;14.0;2.0;55.699986;-4.091996;917.43;NaN;0.0;34.580647;;8 / 30;24710;2022-03-07 02:05:25:708
-2.2986;2.5965;9.2049;-2.2892;2.573;9.182;-0.0234;-0.016;0.0083;0.0012;-3.0E-4;3.0E-4;1.0;-0.88;-23.49;-34.01;145.93;-15.22;14.0;2.0;55.699986;-4.091996;917.43;NaN;0.0;34.580647;;8 / 30;24808;2022-03-07 02:05:25:806
-2.3166;2.5702;9.2025;-2.2898;2.5743;9.1815;-0.0022;-0.0059;-0.003;0.0012;-3.0E-4;3.0E-4;1.0;-0.83;-23.74;-33.96;147.74;-15.21;14.0;2.0;55.699986;-4.091996;917.43;NaN;0.0;34.580647;;8 / 30;24909;2022-03-07 02:05:25:907
-2.307;2.5687;9.1642;-2.2911;2.5742;9.1812;-0.0118;-0.0141;0.0135;6.0E-4;-5.0E-4;5.0E-4;1.0;-0.83;-23.74;-33.96;147.74;-15.21;14.0;2.0;55.699986;-4.091996;917.43;NaN;0.0;34.580647;;8 / 30;25008;2022-03-07 02:05:26:006
-2.3022;2.581;9.2073;-2.2922;2.5772;9.1801;5.0E-4;0.0105;-0.0026;9.0E-4;-2.0E-4;2.0E-4;1.0;-0.94;-23.72;-34.2;147.71;-15.22;14.01;2.0;55.699986;-4.091996;917.43;NaN;0.0;34.580647;;8 / 30;25109;2022-03-07 02:05:26:107
-2.3082;2.5663;9.2336;-2.2915;2.5745;9.181;-0.0076;-0.0162;1.0E-4;8.0E-4;-0.0017;3.0E-4;1.0;-1.2;-23.83;-34.31;147.71;-15.22;14.01;2.0;55.699986;-4.091996;917.43;NaN;0.0;34.580647;;8 / 30;25209;2022-03-07 02:05:26:207
-2.2771;2.5917;9.1929;-2.2908;2.5752;9.181;0.0067;0.0044;-0.0107;8.0E-4;-0.0017;3.0E-4;1.0;-1.18;-23.89;-34.18;147.71;-15.22;14.01;2.0;55.699986;-4.091996;917.43;NaN;0.0;34.580647;;8 / 30;25308;2022-03-07 02:05:26:306
-2.3058;2.5675;9.2204;-2.2902;2.575;9.1812;-0.013;-0.0042;0.0101;2.0E-4;-0.0021;2.0E-4;1.0;-1.18;-23.89;-34.18;147.71;-15.22;14.01;2.0;55.699986;-4.091996;917.43;NaN;0.0;34.580647;;8 / 30;25408;2022-03-07 02:05:26:406
-2.295;2.5857;9.2013;-2.2902;2.575;9.1812;-0.013;-0.0042;0.0101;0.0015;-5.0E-4;8.0E-4;1.0;-1.16;-23.78;-34.05;147.71;-15.22;14.01;2.0;55.699986;-4.091996;917.43;NaN;0.0;34.580647;;9 / 30;25509;2022-03-07 02:05:26:507
-2.3046;2.5786;9.2025;-2.2908;2.5748;9.1811;-0.0018;-7.0E-4;-0.0013;0.0015;-6.0E-4;6.0E-4;1.0;-1.16;-23.78;-34.05;147.71;-15.22;14.01;2.0;55.699986;-4.091989;916.59;NaN;0.0;38.038708;;9 / 30;25609;2022-03-07 02:05:26:607
-2.2986;2.575;9.1953;-2.2914;2.5763;9.1806;-0.0068;-0.005;0.0029;0.0015;-6.0E-4;6.0E-4;1.0;-1.39;-23.81;-33.56;147.71;-15.22;14.01;2.0;55.699986;-4.091989;916.59;NaN;0.0;38.038708;;9 / 30;25708;2022-03-07 02:05:26:706
-2.3046;2.5822;9.2336;-2.2914;2.5748;9.181;-0.0063;-0.0084;0.0014;0.002;-0.0012;8.0E-4;1.0;-1.2;-23.92;-33.6;147.71;-15.22;14.01;2.0;55.699986;-4.091989;916.59;NaN;0.0;38.038708;;9 / 30;25809;2022-03-07 02:05:26:807
-2.3034;2.5663;9.1654;-2.2893;2.5742;9.1817;-0.0034;0.0032;-3.0E-4;2.0E-4;-0.0012;-2.0E-4;1.0;-1.14;-23.91;-33.68;147.73;-15.22;14.0;2.0;55.699986;-4.091989;916.59;NaN;0.0;38.038708;;9 / 30;25909;2022-03-07 02:05:26:907
-2.2986;2.5762;9.2157;-2.2875;2.5738;9.1822;1.0E-4;-0.0033;-0.0039;0.0011;-0.0021;9.0E-4;1.0;-1.14;-23.91;-33.68;147.73;-15.22;14.0;2.0;55.699986;-4.091989;916.59;NaN;0.0;38.038708;;9 / 30;26009;2022-03-07 02:05:27:007
-2.2962;2.5798;9.2025;-2.2863;2.5734;9.1826;-0.0093;-0.0042;0.0077;0.0011;-0.0021;9.0E-4;1.0;-1.07;-23.94;-33.86;147.75;-15.22;13.99;2.0;55.699986;-4.091989;916.59;NaN;0.0;38.038708;;9 / 30;26109;2022-03-07 02:05:27:107
-2.2962;2.5834;9.2037;-2.2849;2.5721;9.1833;-0.0084;-0.0057;0.0023;5.0E-4;-0.0018;9.0E-4;1.0;-0.73;-23.68;-33.82;147.75;-15.22;13.99;2.0;55.699986;-4.091989;916.59;NaN;0.0;38.038708;;9 / 30;26209;2022-03-07 02:05:27:207
-2.2962;2.5834;9.2037;-2.2849;2.5721;9.1833;-0.0084;-0.0057;0.0023;0.0014;-0.0011;6.0E-4;1.0;-0.67;-23.68;-33.54;147.79;-15.21;13.97;2.0;55.699986;-4.091989;916.59;NaN;0.0;38.038708;;9 / 30;26309;2022-03-07 02:05:27:307
-2.2986;2.5639;9.1977;-2.2846;2.5724;9.1834;-0.0062;-0.0049;3.0E-4;-5.0E-4;-0.0017;6.0E-4;1.0;-0.67;-23.68;-33.54;147.79;-15.21;13.97;2.0;55.699986;-4.091989;916.59;NaN;0.0;38.038708;;9 / 30;26409;2022-03-07 02:05:27:407
-2.2986;2.5774;9.1941;-2.2839;2.5713;9.1838;-0.0046;-0.0041;0.0015;-5.0E-4;-0.0017;6.0E-4;1.0;-0.71;-23.79;-33.66;147.79;-15.21;13.97;2.0;55.699986;-4.091989;916.59;NaN;0.0;38.038708;;10 / 30;26508;2022-03-07 02:05:27:506
-2.295;2.5663;9.1989;-2.284;2.571;9.1839;-0.0114;-8.0E-4;-0.0047;9.0E-4;-0.0024;2.0E-4;1.0;-0.71;-23.79;-33.66;147.79;-15.21;13.97;2.0;55.699986;-4.091989;916.59;NaN;0.0;38.038708;;10 / 30;26608;2022-03-07 02:05:27:606
-2.295;2.5663;9.1989;-2.2831;2.5699;9.1844;-0.0061;-0.0084;4.0E-4;2.0E-4;-0.0017;3.0E-4;1.0;-0.86;-23.83;-33.84;147.8;-15.2;13.97;2.0;55.699986;-4.091989;916.59;NaN;0.0;38.038708;;10 / 30;26709;2022-03-07 02:05:27:707
-2.2783;2.5738;9.1929;-2.2816;2.5689;9.1851;-0.0016;7.0E-4;0.0058;-2.0E-4;-0.0011;5.0E-4;1.0;-1.03;-23.76;-34.16;147.8;-15.2;13.97;2.0;55.699986;-4.091989;916.59;NaN;0.0;38.038708;;10 / 30;26809;2022-03-07 02:05:27:807
-2.2878;2.5651;9.1929;-2.282;2.568;9.1852;-0.0024;-0.008;-7.0E-4;-2.0E-4;-0.0011;5.0E-4;1.0;-1.03;-23.44;-34.03;146.05;-15.19;13.95;2.0;55.699986;-4.091989;916.59;NaN;0.0;38.038708;;10 / 30;26908;2022-03-07 02:05:27:906
-2.2866;2.5726;9.2049;-2.2808;2.5684;9.1854;-0.006;4.0E-4;0.0044;0.0012;-0.0029;6.0E-4;1.0;-1.03;-23.44;-34.03;146.05;-15.19;13.95;2.0;55.699986;-4.091989;916.59;NaN;0.0;38.038708;;10 / 30;27009;2022-03-07 02:05:28:007
-2.2866;2.5627;9.2192;-2.2808;2.5684;9.1854;-0.006;4.0E-4;0.0044;6.0E-4;-6.0E-4;3.0E-4;1.0;-1.03;-23.4;-33.94;146.06;-15.18;13.95;2.0;55.699986;-4.091989;916.59;NaN;0.0;38.038708;;10 / 30;27109;2022-03-07 02:05:28:107
-2.2902;2.5714;9.2157;-2.281;2.5679;9.1855;-0.004;-0.0073;-0.0042;-2.0E-4;-0.002;3.0E-4;1.0;-1.03;-23.4;-33.94;146.06;-15.18;13.95;2.0;55.699986;-4.091989;916.59;NaN;0.0;38.038708;;10 / 30;27209;2022-03-07 02:05:28:207
-2.2974;2.5639;9.2192;-2.2798;2.5672;9.186;-0.0042;-0.0076;0.0012;-2.0E-4;-0.002;3.0E-4;1.0;-0.79;-23.49;-33.64;146.06;-15.18;13.95;2.0;55.699986;-4.091989;916.59;NaN;0.0;38.038708;;10 / 30;27309;2022-03-07 02:05:28:307
-2.2974;2.575;9.2121;-2.2809;2.568;9.1855;-0.0063;-0.0065;0.002;0.0023;-3.0E-4;8.0E-4;1.0;-0.94;-23.46;-33.77;146.06;-15.18;13.95;2.0;55.699986;-4.091989;916.59;NaN;0.0;38.038708;;10 / 30;27408;2022-03-07 02:05:28:406
-2.295;2.5726;9.2061;-2.2813;2.5679;9.1854;-0.0061;-0.0065;-0.0013;0.0021;-9.0E-4;5.0E-4;1.0;-0.79;-23.44;-33.82;146.06;-15.18;13.95;2.0;55.699986;-4.091989;916.59;NaN;0.0;38.038708;;11 / 30;27508;2022-03-07 02:05:28:506
-2.3034;2.5579;9.2432;-2.2823;2.5705;9.1845;-3.0E-4;-0.0067;-0.0074;0.0035;8.0E-4;9.0E-4;1.0;-0.79;-23.44;-33.82;146.06;-15.18;13.95;2.0;55.699986;-4.091989;916.59;NaN;0.0;38.038708;;11 / 30;27609;2022-03-07 02:05:28:607
-2.2938;2.5639;9.2252;-2.2837;2.572;9.1837;-0.0032;-0.0036;0.005;0.0035;8.0E-4;9.0E-4;1.0;-0.67;-23.34;-33.54;146.03;-15.2;13.95;2.0;55.699986;-4.091989;916.59;NaN;0.0;38.038708;;11 / 30;27708;2022-03-07 02:05:28:706
-2.2819;2.5774;9.1881;-2.2837;2.572;9.1837;-0.0032;-0.0036;0.005;0.0027;8.0E-4;3.0E-4;1.0;-0.94;-23.38;-33.58;146.03;-15.2;13.95;2.0;55.699986;-4.091989;916.59;NaN;0.0;38.038708;;11 / 30;27809;2022-03-07 02:05:28:807
-2.3046;2.5627;9.2073;-2.2844;2.573;9.1832;-0.002;-0.0054;3.0E-4;0.0011;2.0E-4;8.0E-4;1.0;-1.14;-23.55;-33.41;148.91;-15.21;13.97;2.0;55.699986;-4.091989;916.59;NaN;0.0;38.038708;;11 / 30;27909;2022-03-07 02:05:28:907
-2.307;2.5726;9.2013;-2.2852;2.5733;9.1829;-0.0061;-0.0076;-0.0042;0.0024;3.0E-4;2.0E-4;1.0;-1.14;-23.55;-33.41;148.91;-15.21;13.97;2.0;55.699986;-4.091989;916.59;NaN;0.0;38.038708;;11 / 30;28008;2022-03-07 02:05:29:006
-2.295;2.5687;9.2204;-2.2867;2.5742;9.1823;-0.0103;-0.0045;-1.0E-4;0.0024;3.0E-4;2.0E-4;1.0;-1.48;-23.76;-33.19;148.9;-15.21;13.97;2.0;55.699986;-4.091989;916.59;NaN;0.0;38.038708;;11 / 30;28108;2022-03-07 02:05:29:106
-2.3058;2.5845;9.1917;-2.2878;2.5742;9.1821;-0.0117;-0.0043;-0.0044;0.002;-5.0E-4;0.0011;1.0;-1.44;-23.94;-33.36;148.9;-15.21;13.97;2.0;55.699986;-4.091989;916.59;NaN;0.0;38.038708;;11 / 30;28208;2022-03-07 02:05:29:206
-2.2986;2.5663;9.2085;-2.2886;2.5761;9.1813;-0.0015;-0.0024;-0.0059;0.0018;8.0E-4;5.0E-4;1.0;-1.29;-24.13;-33.36;148.87;-15.22;13.99;2.0;55.699986;-4.091989;916.59;NaN;0.0;38.038708;;11 / 30;28309;2022-03-07 02:05:29:307
-2.2986;2.5774;9.2025;-2.2882;2.5756;9.1815;-0.0042;-0.008;-0.0023;0.0015;-0.0014;0.0011;1.0;-1.29;-24.13;-33.36;148.87;-15.22;13.99;2.0;55.699986;-4.091989;916.59;NaN;0.0;38.038708;;11 / 30;28408;2022-03-07 02:05:29:406
-2.3082;2.5881;9.2145;-2.2882;2.577;9.1812;-0.0038;-0.005;0.0016;0.0015;-0.0014;0.0011;1.0;-1.33;-23.92;-33.36;148.86;-15.23;13.99;2.0;55.699986;-4.091989;916.59;NaN;0.0;38.038708;;11 / 30;28509;2022-03-07 02:05:29:507
-2.295;2.5702;9.1917;-2.2882;2.577;9.1812;-0.0038;-0.005;0.0016;3.0E-4;-0.0015;8.0E-4;1.0;-1.2;-23.61;-33.62;148.86;-15.23;13.99;2.0;55.699986;-4.091989;916.59;NaN;0.0;38.038708;;11 / 30;28608;2022-03-07 02:05:29:606
-2.301;2.5798;9.2049;-2.2888;2.5771;9.181;-0.0064;-0.0139;-3.0E-4;0.0014;-0.0017;8.0E-4;1.0;-1.28;-23.51;-33.9;147.71;-15.24;14.0;2.0;55.699986;-4.091989;916.59;NaN;0.0;38.038708;;11 / 30;28708;2022-03-07 02:05:29:706
-2.2998;2.581;9.2049;-2.288;2.5777;9.181;-0.0025;-0.0035;-0.0032;0.0012;-3.0E-4;6.0E-4;1.0;-1.28;-23.51;-33.9;147.71;-15.24;14.0;2.0;55.699986;-4.091989;916.59;NaN;0.0;38.038708;;11 / 30;28808;2022-03-07 02:05:29:806
-2.307;2.5738;9.2133;-2.2888;2.5778;9.1808;-0.0076;-0.0054;0.0011;0.0012;-3.0E-4;6.0E-4;1.0;-1.26;-23.44;-34.03;145.91;-15.24;13.99;2.0;55.699986;-4.091989;916.59;NaN;0.0;38.038708;;11 / 30;28908;2022-03-07 02:05:29:906
-2.2998;2.5845;9.1977;-2.288;2.5775;9.1811;-0.0032;-0.004;-0.0013;0.0015;-0.0018;3.0E-4;1.0;-1.01;-23.59;-33.82;145.91;-15.24;13.99;2.0;55.699986;-4.091989;916.59;NaN;0.0;38.038708;;11 / 30;29009;2022-03-07 02:05:30:007
-2.295;2.575;9.2073;-2.2879;2.5773;9.1812;-0.0082;-0.0137;-0.004;0.0023;-9.0E-4;9.0E-4;1.0;-0.73;-23.87;-33.81;147.71;-15.24;13.99;2.0;55.699986;-4.091989;916.59;NaN;0.0;38.038708;;11 / 30;29109;2022-03-07 02:05:30:107
-2.2926;2.5869;9.1929;-2.2858;2.5785;9.1813;-0.001;3.0E-4;-0.003;6.0E-4;-0.0023;0.0011;1.0;-0.73;-23.87;-33.81;147.71;-15.24;13.99;2.0;55.699986;-4.091989;916.59;NaN;0.0;38.038708;;11 / 30;29209;2022-03-07 02:05:30:207
-2.2986;2.5651;9.2145;-2.2855;2.5764;9.182;-0.0036;-0.009;0.0061;6.0E-4;-0.0023;0.0011;1.0;-0.6;-24.15;-33.66;147.73;-15.24;13.98;2.0;55.699986;-4.091989;916.59;NaN;0.0;38.038708;;11 / 30;29309;2022-03-07 02:05:30:307
-2.2986;2.5822;9.2145;-2.2855;2.5764;9.182;-0.0036;-0.009;0.0061;0.0015;-8.0E-4;3.0E-4;1.0;-0.67;-23.89;-33.54;147.73;-15.24;13.98;2.0;55.699986;-4.091989;916.59;NaN;0.0;38.038708;;11 / 30;29409;2022-03-07 02:05:30:407
-2.3094;2.5702;9.2025;-2.284;2.5767;9.1823;-0.0049;-0.0015;0.0074;5.0E-4;-6.0E-4;3.0E-4;1.0;-0.67;-23.96;-33.77;147.76;-15.23;13.97;2.0;55.699986;-4.091989;916.59;NaN;0.0;38.038708;;11 / 30;29509;2022-03-07 02:05:30:507
-2.2771;2.5687;9.1881;-2.286;2.5757;9.1821;-0.0177;-0.0116;0.001;0.0031;6.0E-4;0.0014;1.0;-0.67;-23.96;-33.77;147.76;-15.23;13.97;2.0;55.699986;-4.091989;916.59;NaN;0.0;38.038708;;11 / 30;29609;2022-03-07 02:05:30:607
-2.3189;2.5857;9.1869;-2.2852;2.5773;9.1818;-0.0049;0.0068;0.0033;0.0031;6.0E-4;0.0014;1.0;-1.11;-23.89;-33.94;147.75;-15.23;13.98;2.0;55.699986;-4.091989;916.59;NaN;0.0;38.038708;;11 / 30;29708;2022-03-07 02:05:30:706
-2.289;2.5786;9.2001;-2.2849;2.5756;9.1824;-0.0051;-0.012;0.0031;-5.0E-4;-0.0026;5.0E-4;1.0;-1.35;-23.57;-33.79;147.75;-15.23;13.98;2.0;55.699986;-4.091989;916.59;NaN;0.0;38.038708;;11 / 30;29809;2022-03-07 02:05:30:807
-2.2998;2.5834;9.2025;-2.284;2.5759;9.1825;-0.0033;-0.0022;-0.0056;9.0E-4;-0.0012;9.0E-4;1.0;-1.22;-24.02;-33.77;147.76;-15.23;13.97;2.0;55.699986;-4.091989;916.59;NaN;0.0;38.038708;;11 / 30;29908;2022-03-07 02:05:30:906
-2.2831;2.5639;9.2073;-2.2829;2.5749;9.1831;1.0E-4;-0.0062;-0.0063;0.0015;-9.0E-4;0.0;1.0;-1.22;-24.02;-33.77;147.76;-15.23;13.97;2.0;55.699986;-4.091989;916.59;NaN;0.0;38.038708;;11 / 30;30008;2022-03-07 02:05:31:006
-2.289;2.5702;9.2025;-2.2829;2.5749;9.1831;1.0E-4;-0.0062;-0.0063;0.0015;-9.0E-4;0.0;1.0;-1.24;-24.15;-34.01;147.78;-15.22;13.96;2.0;55.699986;-4.091989;916.59;NaN;0.0;38.038708;;11 / 30;30108;2022-03-07 02:05:31:106
-2.2974;2.6037;9.2192;-2.281;2.5721;9.1843;0.0046;-0.0146;-8.0E-4;-0.0011;-0.0032;0.0012;1.0;-1.24;-24.15;-34.01;147.78;-15.22;13.96;2.0;55.699986;-4.091989;916.59;NaN;0.0;38.038708;;11 / 30;30208;2022-03-07 02:05:31:206
-2.2914;2.5519;9.1738;-2.2802;2.5721;9.1845;-0.0053;-0.0047;0.0017;0.0027;5.0E-4;8.0E-4;1.0;-1.09;-24.06;-33.75;147.82;-15.21;13.95;2.0;55.699986;-4.091989;916.59;NaN;0.0;38.038708;;11 / 30;30309;2022-03-07 02:05:31:307
-2.2902;2.5663;9.2109;-2.2793;2.5706;9.1852;-0.0137;0.0019;0.0199;5.0E-4;-6.0E-4;-2.0E-4;1.0;-1.09;-24.06;-33.75;147.82;-15.21;13.95;2.0;55.699986;-4.091989;916.59;NaN;0.0;38.038708;;11 / 30;30409;2022-03-07 02:05:31:407
-2.2974;2.5687;9.2181;-2.278;2.5692;9.1859;8.0E-4;-0.0098;0.0034;5.0E-4;-6.0E-4;-2.0E-4;1.0;-1.01;-23.96;-33.96;147.85;-15.2;13.94;2.0;55.699986;-4.091989;916.59;NaN;0.0;38.038708;;11 / 30;30508;2022-03-07 02:05:31:506
-2.2902;2.5675;9.2073;-2.2769;2.5683;9.1864;-0.0089;-0.0085;0.0099;0.0011;-0.0021;8.0E-4;1.0;-1.01;-23.96;-33.96;147.85;-15.2;13.94;2.0;55.699986;-4.091989;916.59;NaN;0.0;38.038708;;11 / 30;30608;2022-03-07 02:05:31:606
-2.2974;2.5567;9.2204;-2.2764;2.5671;9.1869;-0.0051;-0.0109;-0.0057;0.0;-0.0018;3.0E-4;1.0;-1.11;-23.59;-33.73;147.89;-15.18;13.92;2.0;55.699986;-4.091989;916.59;NaN;0.0;38.038708;;11 / 30;30708;2022-03-07 02:05:31:706
-2.2795;2.5714;9.2085;-2.276;2.5661;9.1872;-0.0046;-0.0032;0.0035;6.0E-4;-0.0015;8.0E-4;1.0;-1.11;-23.59;-33.73;147.89;-15.18;13.92;2.0;55.699986;-4.091989;916.59;NaN;0.0;38.038708;;11 / 30;30809;2022-03-07 02:05:31:807
-2.2938;2.5579;9.2085;-2.276;2.5661;9.1872;-0.0046;-0.0032;0.0035;6.0E-4;-0.0015;8.0E-4;1.0;-0.75;-23.81;-33.64;147.92;-15.17;13.91;2.0;55.699986;-4.091989;916.59;NaN;0.0;38.038708;;11 / 30;30908;2022-03-07 02:05:31:906
-2.2842;2.5663;9.1977;-2.2754;2.5665;9.1873;-0.004;-0.0029;-3.0E-4;0.0014;-3.0E-4;6.0E-4;1.0;-0.67;-23.49;-33.36;147.92;-15.17;13.91;2.0;55.699986;-4.091989;916.59;NaN;0.0;38.038708;;11 / 30;31008;2022-03-07 02:05:32:006
-2.2783;2.5543;9.2037;-2.2769;2.5674;9.1867;-0.0042;-0.0032;-0.0023;0.002;-6.0E-4;6.0E-4;1.0;-0.56;-23.68;-33.37;149.02;-15.18;13.92;2.0;55.699986;-4.091989;916.59;NaN;0.0;38.038708;;11 / 30;31109;2022-03-07 02:05:32:107
-2.2938;2.5726;9.1846;-2.2775;2.5688;9.1861;0.0014;-0.0128;-0.0018;-5.0E-4;-8.0E-4;2.0E-4;1.0;-0.56;-23.68;-33.37;149.02;-15.18;13.92;2.0;55.699986;-4.091989;916.59;NaN;0.0;38.038708;;11 / 30;31209;2022-03-07 02:05:32:207
-2.295;2.5857;9.1774;-2.28;2.5692;9.1854;-0.0056;-0.0108;-0.0023;-5.0E-4;-8.0E-4;2.0E-4;1.0;-0.73;-23.57;-33.41;149.01;-15.19;13.92;2.0;55.699986;-4.091989;916.59;NaN;0.0;38.038708;;11 / 30;31308;2022-03-07 02:05:32:306
-2.301;2.5845;9.2001;-2.2797;2.5701;9.1852;0.0147;-0.0227;-0.0102;0.0031;-0.0034;9.0E-4;1.0;-1.03;-23.36;-33.41;149.01;-15.19;13.92;2.0;55.699986;-4.091989;916.59;NaN;0.0;38.038708;;11 / 30;31409;2022-03-07 02:05:32:407
-2.2854;2.5762;9.1953;-2.2815;2.5723;9.1841;-9.0E-4;0.0012;-0.0015;0.0011;3.0E-4;5.0E-4;1.0;-1.05;-23.72;-33.53;147.85;-15.19;13.94;2.0;55.699986;-4.091989;916.59;NaN;0.0;38.038708;;11 / 30;31509;2022-03-07 02:05:32:507
-2.2962;2.575;9.2252;-2.2833;2.5739;9.1832;-0.0054;-0.0052;0.0043;0.0031;3.0E-4;0.0012;1.0;-1.05;-23.72;-33.53;147.85;-15.19;13.94;2.0;55.699986;-4.091989;916.59;NaN;0.0;38.038708;;11 / 30;31609;2022-03-07 02:05:32:607
-2.2866;2.5893;9.2025;-2.2833;2.5739;9.1832;-0.0054;-0.0052;0.0043;0.0031;3.0E-4;0.0012;1.0;-1.14;-23.72;-33.3;148.91;-15.22;13.96;2.0;55.699986;-4.091989;916.59;NaN;0.0;38.038708;;11 / 30;31708;2022-03-07 02:05:32:706
-2.2974;2.5591;9.2133;-2.2816;2.5747;9.1835;0.0072;-5.0E-4;-0.0064;9.0E-4;-0.0011;9.0E-4;1.0;-1.14;-23.57;-33.45;148.91;-15.22;13.96;2.0;55.699986;-4.091989;916.59;NaN;0.0;38.038708;;11 / 30;31809;2022-03-07 02:05:32:807
-2.2974;2.5762;9.2049;-2.2816;2.5747;9.1834;-0.0065;-0.0086;-0.0064;-3.0E-4;-0.0034;6.0E-4;1.0;-0.99;-23.7;-33.62;147.8;-15.22;13.95;2.0;55.699986;-4.091989;916.59;NaN;0.0;38.038708;;11 / 30;31909;2022-03-07 02:05:32:907
-2.2878;2.5762;9.2037;-2.2791;2.5731;9.1845;0.0023;-0.002;-0.0075;0.002;-0.0011;6.0E-4;1.0;-0.99;-23.7;-33.62;147.8;-15.22;13.95;2.0;55.699986;-4.091989;916.59;NaN;0.0;38.038708;;11 / 30;32009;2022-03-07 02:05:33:007
-2.2831;2.5687;9.2073;-2.2785;2.5724;9.1848;-0.0034;-0.0054;0.0031;0.002;-0.0011;6.0E-4;1.0;-0.97;-23.55;-33.75;147.83;-15.21;13.94;2.0;55.699986;-4.091989;916.59;NaN;0.0;38.038708;;11 / 30;32108;2022-03-07 02:05:33:106
-2.2914;2.575;9.2085;-2.2797;2.5718;9.1847;-0.0082;-0.0106;-7.0E-4;0.002;3.0E-4;5.0E-4;1.0;-0.97;-23.55;-33.75;147.83;-15.21;13.94;2.0;55.699986;-4.091989;916.59;NaN;0.0;38.038708;;11 / 30;32208;2022-03-07 02:05:33:206
-2.2938;2.5714;9.2097;-2.2793;2.5716;9.1849;-0.0034;-0.0058;0.0054;0.0012;-8.0E-4;9.0E-4;1.0;-0.73;-23.51;-33.84;147.84;-15.2;13.94;2.0;55.699986;-4.091989;916.59;NaN;0.0;38.038708;;11 / 30;32309;2022-03-07 02:05:33:307
-2.3261;2.5869;9.1941;-2.2793;2.5716;9.1849;-0.0034;-0.0058;0.0054;0.0029;-0.0026;0.0;1.0;-0.84;-23.47;-33.47;147.84;-15.2;13.94;2.0;55.699986;-4.091989;916.59;NaN;0.0;38.038708;;11 / 30;32409;2022-03-07 02:05:33:407
-2.3082;2.5893;9.2097;-2.2815;2.5735;9.1838;-0.008;-0.0239;0.0085;0.0029;-0.0026;0.0;1.0;-0.73;-23.55;-33.19;148.93;-15.21;13.95;2.0;55.699986;-4.091989;916.59;NaN;0.0;38.038708;;10 / 30;32508;2022-03-07 02:05:33:506
-2.2842;2.5663;9.2085;-2.2829;2.5765;9.1826;-0.0162;0.0193;0.0117;3.0E-4;5.0E-4;6.0E-4;1.0;-0.73;-23.55;-33.19;148.93;-15.21;13.95;2.0;55.699978;-4.09199;919.07;NaN;1.12;34.580647;322.7;10 / 30;32609;2022-03-07 02:05:33:607
-2.3058;2.581;9.2157;-2.2856;2.577;9.1818;0.0024;-0.0297;-0.0142;0.0067;0.0029;9.0E-4;1.0;-0.94;-23.46;-33.28;147.16;-15.23;13.96;2.0;55.699978;-4.09199;919.07;NaN;1.12;34.580647;322.7;10 / 30;32709;2022-03-07 02:05:33:707
-2.2974;2.5989;9.2025;-2.2901;2.5782;9.1803;-0.0035;-0.0092;0.0157;-0.0029;0.0027;-5.0E-4;1.0;-1.03;-23.74;-33.54;147.16;-15.23;13.96;2.0;55.699978;-4.09199;919.07;NaN;1.12;34.580647;322.7;10 / 30;32809;2022-03-07 02:05:33:807
-2.307;2.5774;9.1953;-2.2934;2.5755;9.1803;-0.0023;-2.0E-4;-0.0124;-0.0029;0.0027;-5.0E-4;1.0;-0.83;-23.92;-33.62;147.69;-15.24;14.01;2.0;55.699978;-4.09199;919.07;NaN;1.12;34.580647;322.7;10 / 30;32908;2022-03-07 02:05:33:906
-2.3154;2.5929;9.2001;-2.299;2.5743;9.1792;-0.0084;-0.0093;0.0179;0.0011;0.0031;3.0E-4;1.0;-0.83;-23.92;-33.62;147.69;-15.24;14.01;2.0;55.699978;-4.09199;919.07;NaN;1.12;34.580647;322.7;10 / 30;33008;2022-03-07 02:05:34:006
-2.3142;2.5822;9.1953;-2.304;2.5762;9.1774;-0.0115;-0.0087;-0.0084;0.0023;0.0018;0.0014;1.0;-0.97;-23.81;-33.64;147.63;-15.22;14.06;2.0;55.699978;-4.09199;919.07;NaN;1.12;34.580647;322.7;10 / 30;33110;2022-03-07 02:05:34:108
-2.3177;2.5965;9.2252;-2.304;2.5762;9.1774;-0.0115;-0.0087;-0.0084;-5.0E-4;-0.004;0.0011;1.0;-0.94;-23.79;-33.37;147.63;-15.22;14.06;2.0;55.699978;-4.09199;919.07;NaN;1.12;34.580647;322.7;10 / 30;33209;2022-03-07 02:05:34:207
-2.3201;2.5834;9.2133;-2.3015;2.576;9.1781;-0.0103;-0.0062;6.0E-4;-5.0E-4;-0.004;0.0011;1.0;-1.12;-23.66;-33.28;148.73;-15.23;14.08;2.0;55.699978;-4.09199;919.07;NaN;1.12;34.580647;322.7;10 / 30;33309;2022-03-07 02:05:34:307
-2.301;2.5663;9.2216;-2.3006;2.5766;9.1782;-0.0088;0.0031;0.0135;-0.0035;-0.0046;0.0011;1.0;-1.12;-23.66;-33.28;148.73;-15.23;14.08;2.0;55.699978;-4.09199;919.07;NaN;1.12;34.580647;322.7;10 / 30;33409;2022-03-07 02:05:34:407
-2.3082;2.5941;9.1786;-2.2982;2.5753;9.1791;0.0013;-0.0084;0.006;-0.0026;-0.0026;0.0011;1.0;-1.26;-23.59;-33.26;148.73;-15.23;14.07;2.0;55.699978;-4.09199;919.07;NaN;1.12;34.580647;322.7;11 / 30;33508;2022-03-07 02:05:34:506
-2.3094;2.5603;9.1893;-2.297;2.5731;9.1801;-0.0032;0.0018;-0.0023;3.0E-4;-3.0E-4;5.0E-4;1.0;-1.22;-23.61;-33.32;148.73;-15.23;14.07;2.0;55.699966;-4.091981;922.42;NaN;0.0;34.580647;;11 / 30;33609;2022-03-07 02:05:34:607
-2.3261;2.5786;9.1869;-2.2978;2.5732;9.1798;-0.0153;-0.0068;-0.0052;3.0E-4;-3.0E-4;5.0E-4;1.0;-1.42;-23.55;-33.45;148.79;-15.21;14.05;2.0;55.699966;-4.091981;922.42;NaN;0.0;34.580647;;11 / 30;33708;2022-03-07 02:05:34:706
-2.3034;2.5639;9.1798;-2.2969;2.5727;9.1802;0.0027;-0.0085;0.009;0.002;-5.0E-4;8.0E-4;1.0;-1.42;-23.55;-33.45;148.79;-15.21;14.05;2.0;55.699966;-4.091981;922.42;NaN;0.0;34.580647;;11 / 30;33808;2022-03-07 02:05:34:806
-2.3046;2.575;9.1965;-2.2958;2.5721;9.1806;-0.0068;-0.0035;-0.0071;-0.0012;-0.0035;9.0E-4;1.0;-1.28;-23.51;-33.32;148.8;-15.21;14.05;2.0;55.699966;-4.091981;922.42;NaN;0.0;34.580647;;11 / 30;33908;2022-03-07 02:05:34:906
-2.307;2.5639;9.2276;-2.2958;2.5721;9.1806;-0.0068;-0.0035;-0.0071;6.0E-4;-0.0032;0.0014;1.0;-1.16;-23.59;-33.43;148.8;-15.21;14.05;2.0;55.699966;-4.091981;922.42;NaN;0.0;34.580647;;11 / 30;34009;2022-03-07 02:05:35:007
-2.307;2.5639;9.2276;-2.2945;2.5716;9.1811;-0.0044;-0.0063;0.0032;6.0E-4;-0.0032;0.0014;1.0;-1.12;-23.66;-33.47;148.82;-15.2;14.03;2.0;55.699966;-4.091981;922.42;NaN;0.0;34.580647;;11 / 30;34109;2022-03-07 02:05:35:107
-2.3094;2.5726;9.2192;-2.2934;2.5707;9.1816;-0.014;-0.0053;0.0;9.0E-4;-0.0017;8.0E-4;1.0;-1.12;-23.66;-33.47;148.82;-15.2;14.03;2.0;55.699966;-4.091981;922.42;NaN;0.0;34.580647;;11 / 30;34209;2022-03-07 02:05:35:207
-2.3022;2.5834;9.2192;-2.2914;2.5693;9.1825;0.0053;-0.0121;-0.0092;0.002;-6.0E-4;2.0E-4;1.0;-1.03;-23.74;-33.49;148.84;-15.2;14.02;2.0;55.699966;-4.091981;922.42;NaN;0.0;34.580647;;11 / 30;34309;2022-03-07 02:05:35:307
-2.3022;2.5834;9.2192;-2.2917;2.5702;9.1822;-0.0047;-0.0014;0.0082;0.0041;0.0018;-5.0E-4;1.0;-0.81;-23.72;-33.45;148.84;-15.2;14.02;2.0;55.699966;-4.091981;922.42;NaN;0.0;34.580647;;11 / 30;34408;2022-03-07 02:05:35:406
-2.3405;2.5893;9.2336;-2.2907;2.5704;9.1824;0.0205;-0.0326;0.0182;0.0041;0.0018;-5.0E-4;1.0;-0.99;-23.46;-33.58;145.94;-15.19;14.01;2.0;55.699966;-4.091981;922.42;NaN;0.0;34.580647;;11 / 30;34509;2022-03-07 02:05:35:507
-2.2842;2.5762;9.1726;-2.2937;2.5725;9.181;-0.0176;0.0087;0.0097;-3.0E-4;3.0E-4;0.0011;1.0;-0.99;-23.46;-33.58;145.94;-15.19;14.01;2.0;55.699966;-4.091981;922.42;NaN;0.0;34.580647;;11 / 30;34610;2022-03-07 02:05:35:608
-2.3154;2.5893;9.2252;-2.2959;2.575;9.1798;-0.0015;-0.0147;-0.0057;0.0069;0.0021;3.0E-4;1.0;-0.96;-23.49;-33.6;145.9;-15.21;14.03;2.0;55.699966;-4.091981;922.42;NaN;0.0;34.580647;;11 / 30;34710;2022-03-07 02:05:35:708
-2.2735;2.5774;9.1475;-2.2959;2.575;9.1798;-0.0015;-0.0147;-0.0057;-0.0035;0.0021;-0.0011;1.0;-0.96;-23.49;-33.6;145.9;-15.21;14.03;2.0;55.699966;-4.091981;922.42;NaN;0.0;34.580647;;11 / 30;34809;2022-03-07 02:05:35:807
-2.2831;2.5567;9.1881;-2.2964;2.571;9.1808;0.0204;-0.009;-0.0219;-0.0035;0.0021;-0.0011;1.0;-0.92;-23.57;-33.62;147.66;-15.22;14.04;2.0;55.699966;-4.091981;922.42;NaN;0.0;34.580647;;11 / 30;34909;2022-03-07 02:05:35:907
-2.3058;2.5567;9.1798;-2.3039;2.5749;9.1778;0.0183;-0.0096;-0.0115;0.007;0.0127;-5.0E-4;1.0;-0.92;-23.57;-33.62;147.66;-15.22;14.04;2.0;55.699966;-4.091981;922.42;NaN;0.0;34.580647;;11 / 30;35009;2022-03-07 02:05:36:007
-2.3201;2.5496;9.1989;-2.3163;2.5652;9.1774;-0.0031;-0.0232;-6.0E-4;-0.0154;0.0011;5.0E-4;1.0;-1.05;-23.76;-33.84;147.58;-15.22;14.09;2.0;55.699966;-4.091981;922.42;NaN;0.0;34.580647;;11 / 30;35109;2022-03-07 02:05:36:107
-2.2974;2.5029;9.2097;-2.3053;2.5375;9.1879;-0.0131;-0.0066;0.0023;-0.0301;-0.0139;0.0147;1.0;-1.05;-23.76;-33.84;147.58;-15.22;14.09;2.0;55.699966;-4.091981;922.42;NaN;0.0;34.580647;;11 / 30;35209;2022-03-07 02:05:36:207
-2.2723;2.6599;9.1702;-2.2974;2.5204;9.1946;-0.0184;0.0105;-0.0172;-0.0301;-0.0139;0.0147;1.0;-0.94;-23.47;-33.81;146.08;-15.0;14.08;2.0;55.699966;-4.091981;922.42;NaN;0.0;34.580647;;11 / 30;35309;2022-03-07 02:05:36:307
-2.3321;2.4682;9.2671;-2.289;2.5221;9.1962;-0.025;0.0198;-0.0136;-0.0063;-5.0E-4;0.0023;1.0;-0.94;-23.47;-33.81;146.08;-15.0;14.08;2.0;55.699966;-4.091981;922.42;NaN;0.0;34.580647;;11 / 30;35409;2022-03-07 02:05:36:407
-2.2902;2.479;9.236;-2.289;2.5221;9.1962;-0.025;0.0198;-0.0136;-0.0286;-0.0276;0.0127;1.0;-0.94;-23.03;-33.88;146.37;-14.9;13.98;2.0;55.699966;-4.091981;922.42;NaN;0.0;34.580647;;11 / 30;35509;2022-03-07 02:05:36:507
-2.2842;2.5065;9.2839;-2.2643;2.4834;9.2128;-0.0289;-0.057;0.006;0.009;0.0049;-0.0015;1.0;-1.05;-22.89;-33.68;146.37;-14.9;13.98;2.0;55.69996;-4.091982;922.21;NaN;0.0;34.580647;;11 / 30;35608;2022-03-07 02:05:36:606
-2.2771;2.5364;9.2049;-2.2659;2.4847;9.2121;0.0056;-0.0102;2.0E-4;0.009;0.0049;-0.0015;1.0;-1.37;-22.89;-33.92;146.9;-14.68;13.82;2.0;55.69996;-4.091982;922.21;NaN;0.0;34.580647;;11 / 30;35708;2022-03-07 02:05:36:706
-2.2675;2.4526;9.2252;-2.2678;2.4884;9.2106;-0.0038;0.0046;-0.0069;0.0047;0.002;-0.0023;1.0;-1.37;-22.89;-33.92;146.9;-14.68;13.82;2.0;55.69996;-4.091982;922.21;NaN;0.0;34.580647;;11 / 30;35808;2022-03-07 02:05:36:806
-2.2819;2.5005;9.224;-2.2733;2.4956;9.2073;-0.0041;-0.0203;0.0034;0.0176;0.0089;-0.0032;1.0;-1.46;-22.93;-33.98;146.85;-14.7;13.83;2.0;55.69996;-4.091982;922.21;NaN;0.0;34.580647;;11 / 30;35908;2022-03-07 02:05:36:906
-2.295;2.5172;9.2372;-2.2853;2.5063;9.2014;-0.0116;-0.0099;4.0E-4;0.0049;-6.0E-4;-2.0E-4;1.0;-1.29;-23.12;-34.01;146.85;-14.7;13.83;2.0;55.69996;-4.091982;922.21;NaN;0.0;34.580647;;11 / 30;36009;2022-03-07 02:05:37:007
-2.2866;2.5232;9.2252;-2.2836;2.5111;9.2006;0.0075;0.0059;-0.01;0.0049;-6.0E-4;-2.0E-4;1.0;-1.22;-23.1;-34.18;146.53;-14.81;13.95;2.0;55.69996;-4.091982;922.21;NaN;0.0;34.580647;;11 / 30;36108;2022-03-07 02:05:37:106
-2.2866;2.4933;9.2001;-2.2854;2.5142;9.1993;-0.0033;-0.0179;-0.0058;0.0043;8.0E-4;-0.002;1.0;-1.22;-23.1;-34.18;146.53;-14.81;13.95;2.0;55.69996;-4.091982;922.21;NaN;0.0;34.580647;;11 / 30;36208;2022-03-07 02:05:37:206
-2.2986;2.5208;9.2097;-2.2854;2.5142;9.1993;-0.0033;-0.0179;-0.0058;0.004;0.0021;0.0;1.0;-1.16;-23.12;-34.12;146.47;-14.85;13.95;2.0;55.69996;-4.091982;922.21;NaN;0.0;34.580647;;11 / 30;36309;2022-03-07 02:05:37:307
-2.3106;2.5172;9.2001;-2.2893;2.5147;9.1981;-0.0047;0.003;0.0083;0.0127;0.0137;-0.0038;1.0;-1.29;-23.16;-34.28;146.47;-14.85;13.95;2.0;55.69996;-4.091982;922.21;NaN;0.0;34.580647;;11 / 30;36409;2022-03-07 02:05:37:407
-2.3321;2.5292;9.2192;-2.3032;2.5255;9.1917;7.0E-4;4.0E-4;-0.0029;0.0127;0.0137;-0.0038;1.0;-1.33;-23.21;-34.37;146.2;-14.92;14.07;2.0;55.69996;-4.091982;922.21;NaN;0.0;34.580647;;11 / 30;36508;2022-03-07 02:05:37:506
-2.3345;2.5149;9.2145;-2.3071;2.5212;9.1919;-0.0146;-0.0199;0.0072;-0.0023;0.002;0.0;1.0;-1.33;-23.21;-34.37;146.2;-14.92;14.07;2.0;55.69996;-4.091982;922.21;NaN;0.0;34.580647;;11 / 30;36609;2022-03-07 02:05:37:607
-2.3225;2.5328;9.2204;-2.3071;2.5218;9.1917;-0.0037;0.0012;-0.0056;0.0;-0.004;8.0E-4;1.0;-1.39;-23.44;-34.31;146.2;-14.9;14.09;2.0;55.69996;-4.091982;922.21;NaN;0.0;34.580647;;11 / 30;36709;2022-03-07 02:05:37:707
-2.3213;2.5125;9.2013;-2.3078;2.5219;9.1915;-0.0031;-0.0039;0.0;0.0;-0.0014;3.0E-4;1.0;-1.39;-23.44;-34.31;146.2;-14.9;14.09;2.0;55.69996;-4.091982;922.21;NaN;0.0;34.580647;;11 / 30;36809;2022-03-07 02:05:37:807
-2.3189;2.5184;9.2133;-2.3077;2.5208;9.1919;-0.0051;-0.0073;-0.0052;0.0;-0.0014;3.0E-4;1.0;-1.46;-23.08;-34.03;146.18;-14.9;14.09;2.0;55.69996;-4.091982;922.21;NaN;0.0;34.580647;;11 / 30;36908;2022-03-07 02:05:37:906
-2.3154;2.522;9.2061;-2.3077;2.5208;9.1919;-0.0051;-0.0073;-0.0052;8.0E-4;-0.0014;6.0E-4;1.0;-1.46;-23.08;-34.03;146.18;-14.9;14.09;2.0;55.69996;-4.091982;922.21;NaN;0.0;34.580647;;11 / 30;37008;2022-03-07 02:05:38:006
-2.3261;2.5244;9.1977;-2.3072;2.5214;9.1918;-0.0052;-0.0019;-0.0049;0.0017;-0.0018;3.0E-4;1.0;-1.31;-23.21;-33.75;146.19;-14.9;14.09;2.0;55.69996;-4.091982;922.21;NaN;0.0;34.580647;;11 / 30;37109;2022-03-07 02:05:38:107
-2.313;2.5172;9.2133;-2.3073;2.5213;9.1918;-0.0034;-0.0059;2.0E-4;-3.0E-4;-5.0E-4;5.0E-4;1.0;-1.31;-23.21;-33.75;146.19;-14.9;14.09;2.0;55.69996;-4.091982;922.21;NaN;0.0;34.580647;;11 / 30;37208;2022-03-07 02:05:38:206
-2.3177;2.5484;9.2085;-2.3068;2.52;9.1923;5.0E-4;-0.0178;-6.0E-4;-3.0E-4;-5.0E-4;5.0E-4;1.0;-1.12;-23.12;-33.54;146.19;-14.9;14.09;2.0;55.69996;-4.091982;922.21;NaN;0.0;34.580647;;11 / 30;37309;2022-03-07 02:05:38:307
-2.2986;2.5603;9.2264;-2.3079;2.5207;9.1919;0.006;-0.0062;-6.0E-4;0.0035;9.0E-4;5.0E-4;1.0;-1.14;-23.46;-33.69;146.19;-14.9;14.09;2.0;55.69996;-4.091982;922.21;NaN;0.0;34.580647;;11 / 30;37408;2022-03-07 02:05:38:406
-2.3321;2.5232;9.2204;-2.3088;2.5219;9.1913;6.0E-4;0.009;0.0257;-0.002;-0.0026;2.0E-4;1.0;-1.12;-23.59;-33.79;147.96;-14.89;14.09;2.0;55.69996;-4.091982;922.21;NaN;0.0;34.580647;;12 / 30;37508;2022-03-07 02:05:38:506
-2.3273;2.5172;9.2204;-2.3094;2.522;9.1911;-0.0041;-0.0122;0.001;0.0027;-0.0011;0.0011;1.0;-1.12;-23.59;-33.79;147.96;-14.89;14.09;2.0;55.69996;-4.091982;922.21;NaN;0.0;34.580647;;12 / 30;37608;2022-03-07 02:05:38:606
-2.3094;2.5161;9.2324;-2.3082;2.5226;9.1913;-0.0012;-0.0069;0.0031;0.0027;-0.0011;0.0011;1.0;-1.22;-23.64;-33.82;147.94;-14.9;14.1;2.0;55.69996;-4.091982;922.21;NaN;0.0;34.580647;;12 / 30;37708;2022-03-07 02:05:38:706
-2.3237;2.5352;9.2169;-2.3082;2.5226;9.1913;-0.0012;-0.0069;0.0031;5.0E-4;-9.0E-4;3.0E-4;1.0;-1.31;-23.72;-33.66;147.94;-14.9;14.1;2.0;55.69996;-4.091982;922.21;NaN;0.0;34.580647;;12 / 30;37808;2022-03-07 02:05:38:806
-2.3213;2.5208;9.2061;-2.3083;2.5224;9.1913;-0.0079;-0.0039;-0.0062;0.0021;-6.0E-4;5.0E-4;1.0;-1.01;-23.72;-33.47;149.05;-14.9;14.1;2.0;55.69996;-4.091982;922.21;NaN;0.0;34.580647;;12 / 30;37909;2022-03-07 02:05:38:907
-2.3189;2.522;9.2001;-2.3082;2.5241;9.1908;-0.0029;-0.0047;-0.0059;0.0018;-3.0E-4;3.0E-4;1.0;-1.01;-23.72;-33.47;149.05;-14.9;14.1;2.0;55.69996;-4.091982;922.21;NaN;0.0;34.580647;;12 / 30;38008;2022-03-07 02:05:39:006
-2.3082;2.5208;9.2192;-2.3094;2.5236;9.1907;-0.0041;-0.0129;-0.0039;0.0018;-3.0E-4;3.0E-4;1.0;-0.97;-23.46;-33.24;147.33;-14.92;14.1;2.0;55.69996;-4.091982;922.21;NaN;0.0;34.580647;;12 / 30;38109;2022-03-07 02:05:39:107
-2.3201;2.5256;9.2145;-2.309;2.5247;9.1905;0.0012;-0.0086;2.0E-4;0.0021;-8.0E-4;3.0E-4;1.0;-0.86;-23.38;-33.45;147.33;-14.92;14.1;2.0;55.69996;-4.091982;922.21;NaN;0.0;34.580647;;12 / 30;38209;2022-03-07 02:05:39:207
-2.3213;2.5184;9.1893;-2.3104;2.5253;9.19;-0.0109;-0.0093;-0.0037;0.0021;0.0;5.0E-4;1.0;-1.05;-23.23;-33.86;146.15;-14.92;14.1;2.0;55.69996;-4.091982;922.21;NaN;0.0;34.580647;;12 / 30;38308;2022-03-07 02:05:39:306
-2.307;2.5101;9.2157;-2.3104;2.5265;9.1896;-0.0056;-0.007;0.0059;0.0034;-6.0E-4;9.0E-4;1.0;-1.05;-23.23;-33.86;146.15;-14.92;14.1;2.0;55.69996;-4.091982;922.21;NaN;0.0;34.580647;;12 / 30;38408;2022-03-07 02:05:39:406
-2.3285;2.528;9.2121;-2.3095;2.5266;9.1898;-0.0083;0.0082;0.0051;0.0034;-6.0E-4;9.0E-4;0.0;-1.18;-23.19;-33.94;146.12;-14.93;14.11;2.0;55.69996;-4.091982;922.21;NaN;0.0;34.580647;;12 / 30;38508;2022-03-07 02:05:39:506
-2.3285;2.528;9.2121;-2.3095;2.5266;9.1898;-0.0083;0.0082;0.0051;0.0011;-0.0014;2.0E-4;0.0;-1.39;-23.31;-34.18;146.12;-14.93;14.11;2.0;55.69995;-4.091989;920.76;NaN;0.0;31.122583;;12 / 30;38609;2022-03-07 02:05:39:607
-2.3381;2.5364;9.2551;-2.3102;2.5279;9.1893;0.0017;-0.0047;-4.0E-4;0.0034;0.0063;0.0024;0.0;-1.52;-23.21;-34.29;143.55;-14.94;14.11;2.0;55.69995;-4.091989;920.76;NaN;0.0;31.122583;;12 / 30;38709;2022-03-07 02:05:39:707
-2.3201;2.5172;9.2169;-2.3169;2.5306;9.1869;0.0062;-0.018;0.0026;0.0032;-0.0012;8.0E-4;0.0;-1.52;-23.21;-34.29;143.55;-14.94;14.11;2.0;55.69995;-4.091989;920.76;NaN;0.0;31.122583;;12 / 30;38808;2022-03-07 02:05:39:806
-2.3177;2.5077;9.2264;-2.3167;2.5316;9.1866;0.0027;-0.0097;3.0E-4;0.0032;-0.0012;8.0E-4;0.0;-1.41;-23.14;-34.26;146.02;-14.95;14.15;2.0;55.69995;-4.091989;920.76;NaN;0.0;31.122583;;12 / 30;38908;2022-03-07 02:05:39:906
-2.3237;2.5352;9.2001;-2.3155;2.53;9.1874;0.0014;-0.0132;0.0024;8.0E-4;-8.0E-4;5.0E-4;0.0;-1.67;-23.03;-34.93;146.02;-14.95;14.15;2.0;55.69995;-4.091989;920.76;NaN;0.0;31.122583;;12 / 30;39008;2022-03-07 02:05:40:006
-2.3213;2.5292;9.1977;-2.3145;2.5303;9.1875;-0.0028;-0.0067;0.0;0.0015;-0.0014;9.0E-4;0.0;-1.67;-22.84;-35.08;142.33;-14.95;14.15;2.0;55.69995;-4.091989;920.76;NaN;0.0;31.122583;;12 / 30;39108;2022-03-07 02:05:40:106
-2.3333;2.522;9.1965;-2.3135;2.5295;9.188;2.0E-4;-0.0075;-9.0E-4;0.002;2.0E-4;0.0;0.0;-1.67;-22.84;-35.08;142.33;-14.95;14.15;2.0;55.69995;-4.091989;920.76;NaN;0.0;31.122583;;12 / 30;39209;2022-03-07 02:05:40:207
-2.307;2.5304;9.2097;-2.3135;2.5295;9.188;2.0E-4;-0.0075;-9.0E-4;0.002;2.0E-4;0.0;0.0;-1.54;-23.03;-34.95;142.35;-14.95;14.13;2.0;55.69995;-4.091989;920.76;NaN;0.0;31.122583;;12 / 30;39308;2022-03-07 02:05:40:306
-2.3249;2.5268;9.2121;-2.3125;2.5289;9.1884;0.002;-0.0109;0.0079;0.0014;-0.0015;5.0E-4;0.0;-1.54;-23.03;-34.95;142.35;-14.95;14.13;2.0;55.69995;-4.091989;920.76;NaN;0.0;31.122583;;12 / 30;39408;2022-03-07 02:05:40:406
-2.3118;2.5268;9.2169;-2.3121;2.5286;9.1886;-0.0065;-0.0077;-0.0029;0.0015;-0.0014;3.0E-4;0.0;-1.33;-23.21;-34.76;144.9;-14.94;14.13;2.0;55.69995;-4.091989;920.76;NaN;0.0;31.122583;;11 / 30;39509;2022-03-07 02:05:40:507
-2.3118;2.5388;9.224;-2.3114;2.5282;9.1889;0.0012;-0.0062;0.001;0.0015;-3.0E-4;9.0E-4;0.0;-1.33;-23.21;-34.76;144.9;-14.94;14.13;2.0;55.69995;-4.091989;920.76;NaN;0.0;31.122583;;11 / 30;39609;2022-03-07 02:05:40:607
-2.3237;2.5328;9.2264;-2.3128;2.5291;9.1883;4.0E-4;-0.0115;0.0016;0.0015;-3.0E-4;9.0E-4;0.0;-0.92;-23.46;-34.54;144.91;-14.94;14.12;2.0;55.69995;-4.091989;920.76;NaN;0.0;31.122583;;11 / 30;39709;2022-03-07 02:05:40:707
-2.3201;2.534;9.2049;-2.3124;2.5296;9.1883;-0.0027;-0.005;-9.0E-4;0.0014;-0.0012;9.0E-4;0.0;-0.92;-23.46;-34.54;144.91;-14.94;14.12;2.0;55.69995;-4.091989;920.76;NaN;0.0;31.122583;;11 / 30;39809;2022-03-07 02:05:40:807
-2.313;2.534;9.2157;-2.3111;2.5294;9.1887;6.0E-4;-0.0047;-0.0026;0.0011;-9.0E-4;8.0E-4;0.0;-1.16;-23.21;-34.35;146.08;-14.95;14.13;2.0;55.69995;-4.091989;920.76;NaN;0.0;31.122583;;11 / 30;39909;2022-03-07 02:05:40:907
-2.3261;2.5352;9.2001;-2.3097;2.5292;9.1891;0.0022;2.0E-4;0.0043;9.0E-4;-8.0E-4;5.0E-4;0.0;-1.16;-23.21;-34.35;146.08;-14.95;14.13;2.0;55.69995;-4.091989;920.76;NaN;0.0;31.122583;;11 / 30;40009;2022-03-07 02:05:41:007
-2.3142;2.5424;9.2228;-2.3097;2.5292;9.1891;0.0022;2.0E-4;0.0043;9.0E-4;-8.0E-4;5.0E-4;0.0;-1.35;-22.91;-34.52;144.92;-14.95;14.11;2.0;55.69995;-4.091989;920.76;NaN;0.0;31.122583;;11 / 30;40108;2022-03-07 02:05:41:106
-2.3213;2.528;9.2169;-2.3099;2.5292;9.189;-0.0067;-0.0103;0.0065;0.0014;6.0E-4;8.0E-4;0.0;-1.35;-22.91;-34.52;144.92;-14.95;14.11;2.0;55.69995;-4.091989;920.76;NaN;0.0;31.122583;;11 / 30;40209;2022-03-07 02:05:41:207
-2.3154;2.5316;9.2073;-2.3114;2.5304;9.1883;-0.0039;-0.0045;-0.0024;0.004;0.0024;0.0021;0.0;-1.59;-22.87;-34.14;143.54;-14.95;14.11;2.0;55.69995;-4.091989;920.76;NaN;0.0;31.122583;;11 / 30;40309;2022-03-07 02:05:41:307
-2.3261;2.5316;9.2085;-2.3133;2.5326;9.1872;-0.004;-0.0054;0.0027;0.0011;0.0;5.0E-4;0.0;-1.41;-22.93;-34.39;143.54;-14.95;14.11;2.0;55.69995;-4.091989;920.76;NaN;0.0;31.122583;;11 / 30;40409;2022-03-07 02:05:41:407
-2.3237;2.5388;9.2097;-2.313;2.5319;9.1875;-0.0047;-0.0116;0.0032;0.0011;0.0;5.0E-4;0.0;-1.29;-23.34;-34.43;146.05;-14.96;14.13;2.0;55.69995;-4.091989;920.76;NaN;0.0;31.122583;;11 / 30;40508;2022-03-07 02:05:41:506
-2.3177;2.528;9.1917;-2.3127;2.5316;9.1876;-0.0055;-0.0072;0.0029;0.0018;3.0E-4;8.0E-4;0.0;-1.29;-23.34;-34.43;146.05;-14.96;14.13;2.0;55.699944;-4.091978;922.83;NaN;0.0;31.122583;;11 / 30;40610;2022-03-07 02:05:41:608
-2.3273;2.5316;9.2109;-2.3114;2.5318;9.1879;0.0022;-0.0043;4.0E-4;0.0014;-9.0E-4;3.0E-4;0.0;-1.22;-23.42;-33.96;146.06;-14.96;14.13;2.0;55.699944;-4.091978;922.83;NaN;0.0;31.122583;;11 / 30;40709;2022-03-07 02:05:41:707
-2.3213;2.5328;9.2025;-2.3106;2.5315;9.1882;-0.0058;-0.0068;-8.0E-4;5.0E-4;-0.0015;9.0E-4;0.0;-1.22;-23.42;-33.96;146.06;-14.96;14.13;2.0;55.699944;-4.091978;922.83;NaN;0.0;31.122583;;11 / 30;40808;2022-03-07 02:05:41:806
-2.3154;2.5268;9.2133;-2.3106;2.5315;9.1882;-0.0058;-0.0068;-8.0E-4;5.0E-4;-0.0015;9.0E-4;0.0;-1.28;-23.47;-33.94;146.08;-14.96;14.12;2.0;55.699944;-4.091978;922.83;NaN;0.0;31.122583;;11 / 30;40909;2022-03-07 02:05:41:907
-2.3345;2.5328;9.2061;-2.3096;2.5304;9.1888;-0.0017;-0.0096;-0.0032;6.0E-4;-0.0014;5.0E-4;0.0;-1.28;-23.47;-33.94;146.08;-14.96;14.12;2.0;55.699944;-4.091978;922.83;NaN;0.0;31.122583;;11 / 30;41008;2022-03-07 02:05:42:006
-2.3201;2.5412;9.1881;-2.3101;2.5306;9.1886;-0.006;-0.0054;-0.0113;8.0E-4;-0.0031;8.0E-4;0.0;-1.33;-23.47;-33.54;146.1;-14.95;14.11;2.0;55.699944;-4.091978;922.83;NaN;0.0;31.122583;;11 / 30;41109;2022-03-07 02:05:42:107
-2.3273;2.5328;9.2097;-2.3105;2.5294;9.1888;-0.0015;-0.0068;0.0012;6.0E-4;-0.002;5.0E-4;0.0;-1.33;-23.47;-33.54;146.1;-14.95;14.11;2.0;55.699944;-4.091978;922.83;NaN;0.0;31.122583;;11 / 30;41209;2022-03-07 02:05:42:207
-2.3261;2.5292;9.2025;-2.309;2.5286;9.1894;0.0058;-0.0072;-0.0018;6.0E-4;-0.002;5.0E-4;0.0;-1.03;-23.4;-33.64;146.1;-14.95;14.11;2.0;55.699944;-4.091978;922.83;NaN;0.0;31.122583;;11 / 30;41309;2022-03-07 02:05:42:307
-2.3249;2.5208;9.2145;-2.3069;2.5273;9.1903;-0.0011;-0.0078;-0.0104;-5.0E-4;-0.0032;6.0E-4;0.0;-1.09;-23.29;-33.82;146.1;-14.95;14.11;2.0;55.699944;-4.091978;922.83;NaN;0.0;31.122583;;11 / 30;41408;2022-03-07 02:05:42:406
-2.3237;2.5316;9.2085;-2.3059;2.5259;9.1909;-0.0053;-0.0056;-0.0028;0.0;-0.0021;0.0;0.0;-0.9;-22.97;-33.86;146.15;-14.93;14.09;2.0;55.699944;-4.091978;922.83;NaN;0.0;31.122583;;11 / 30;41508;2022-03-07 02:05:42:506
-2.3213;2.5196;9.2252;-2.3067;2.5256;9.1908;-0.0044;-0.0086;0.0056;0.0012;2.0E-4;5.0E-4;0.0;-0.9;-22.97;-33.86;146.15;-14.93;14.09;2.0;55.699944;-4.091978;922.83;NaN;0.0;31.122583;;11 / 30;41608;2022-03-07 02:05:42:606
-2.3106;2.5316;9.2025;-2.3067;2.5256;9.1908;-0.0044;-0.0086;0.0056;0.0012;2.0E-4;5.0E-4;0.0;-0.96;-22.93;-33.81;146.17;-14.92;14.09;2.0;55.699944;-4.091978;922.83;NaN;0.0;31.122583;;11 / 30;41709;2022-03-07 02:05:42:707
-2.3118;2.5089;9.2025;-2.3062;2.5247;9.1912;-0.0025;-0.0049;-2.0E-4;5.0E-4;-6.0E-4;3.0E-4;0.0;-0.92;-23.06;-33.92;146.17;-14.92;14.09;2.0;55.699944;-4.091978;922.83;NaN;0.0;31.122583;;11 / 30;41808;2022-03-07 02:05:42:806
-2.3106;2.5316;9.2145;-2.3051;2.5229;9.1919;0.0031;-0.0125;-0.0037;0.0014;-9.0E-4;8.0E-4;0.0;-0.99;-23.21;-34.01;146.2;-14.91;14.08;2.0;55.699944;-4.091978;922.83;NaN;0.0;31.122583;;11 / 30;41909;2022-03-07 02:05:42:907
-2.3118;2.5304;9.2025;-2.3056;2.5233;9.1917;-0.0086;-0.0055;-6.0E-4;0.0015;-0.0029;3.0E-4;0.0;-0.99;-23.21;-34.01;146.2;-14.91;14.08;2.0;55.699944;-4.091978;922.83;NaN;0.0;31.122583;;11 / 30;42009;2022-03-07 02:05:43:007
-2.3106;2.5292;9.1989;-2.304;2.5231;9.1922;0.0023;-0.0032;-0.004;0.0015;-0.0029;3.0E-4;0.0;-1.2;-23.4;-34.12;146.19;-14.91;14.08;2.0;55.699944;-4.091978;922.83;NaN;0.0;31.122583;;11 / 30;42109;2022-03-07 02:05:43:107
-2.313;2.5172;9.2157;-2.3057;2.5235;9.1916;0.0027;-0.0087;-4.0E-4;0.0027;0.0015;5.0E-4;0.0;-1.2;-23.4;-34.12;146.19;-14.91;14.08;2.0;55.699944;-4.091978;922.83;NaN;0.0;31.122583;;11 / 30;42209;2022-03-07 02:05:43:207
-2.3213;2.5208;9.2288;-2.3075;2.5242;9.191;-0.0084;-0.0036;0.0089;0.0017;0.0011;3.0E-4;0.0;-1.29;-23.17;-34.29;146.19;-14.91;14.08;2.0;55.699944;-4.091978;922.83;NaN;0.0;31.122583;;11 / 30;42308;2022-03-07 02:05:43:306
-2.3082;2.5364;9.2109;-2.3075;2.5242;9.191;-0.0084;-0.0036;0.0089;0.0014;-0.0017;5.0E-4;0.0;-1.35;-23.19;-34.2;146.19;-14.91;14.08;2.0;55.699944;-4.091978;922.83;NaN;0.0;31.122583;;11 / 30;42408;2022-03-07 02:05:43:406
-2.3213;2.522;9.2157;-2.3067;2.5244;9.1911;-0.0017;-0.0014;0.0028;0.0014;-0.0017;5.0E-4;0.0;-1.39;-23.12;-34.05;146.18;-14.92;14.09;2.0;55.699944;-4.091978;922.83;NaN;0.0;31.122583;;11 / 30;42508;2022-03-07 02:05:43:506
-2.313;2.5244;9.2025;-2.307;2.5249;9.1909;-0.0064;-0.0104;-2.0E-4;0.0018;-3.0E-4;6.0E-4;0.0;-1.39;-23.12;-34.05;146.18;-14.92;14.09;2.0;55.699944;-4.091978;922.83;NaN;0.0;31.122583;;11 / 30;42608;2022-03-07 02:05:43:606
-2.3201;2.5232;9.2097;-2.3074;2.5258;9.1906;-0.0018;-0.0051;-0.004;0.002;-3.0E-4;6.0E-4;0.0;-1.42;-22.97;-34.18;146.17;-14.92;14.09;2.0;55.699944;-4.091978;922.83;NaN;0.0;31.122583;;11 / 30;42709;2022-03-07 02:05:43:707
-2.3142;2.5196;9.2157;-2.3086;2.5266;9.1901;-0.0019;-0.0062;-0.0024;0.0018;-5.0E-4;8.0E-4;0.0;-1.29;-23.27;-34.31;146.17;-14.92;14.09;2.0;55.699944;-4.091978;922.83;NaN;0.0;31.122583;;11 / 30;42809;2022-03-07 02:05:43:807
-2.3201;2.5196;9.2408;-2.3089;2.5273;9.1898;-0.0032;-0.0093;-0.0042;0.0018;-5.0E-4;8.0E-4;0.0;-1.18;-23.23;-34.28;146.14;-14.93;14.1;2.0;55.699944;-4.091978;922.83;NaN;0.0;31.122583;;11 / 30;42909;2022-03-07 02:05:43:907
-2.3309;2.5196;9.2037;-2.3105;2.5276;9.1893;-0.0068;-0.0092;-2.0E-4;9.0E-4;-3.0E-4;6.0E-4;0.0;-1.18;-23.23;-34.28;146.14;-14.93;14.1;2.0;55.699944;-4.091978;922.83;NaN;0.0;31.122583;;11 / 30;43009;2022-03-07 02:05:44:007
-2.3189;2.522;9.2073;-2.3112;2.5279;9.189;-9.0E-4;-0.0111;-0.0031;0.002;-6.0E-4;2.0E-4;0.0;-1.03;-23.4;-34.26;146.11;-14.94;14.11;2.0;55.699944;-4.091978;922.83;NaN;0.0;31.122583;;11 / 30;43108;2022-03-07 02:05:44:106
-2.3369;2.522;9.2133;-2.3112;2.5279;9.189;-9.0E-4;-0.0111;-0.0031;0.0021;-2.0E-4;0.0011;0.0;-1.03;-23.4;-34.26;146.11;-14.94;14.11;2.0;55.699944;-4.091978;922.83;NaN;0.0;31.122583;;11 / 30;43208;2022-03-07 02:05:44:206
-2.3094;2.5256;9.2037;-2.3122;2.5295;9.1883;-0.0071;-0.0012;-0.0033;0.0021;-2.0E-4;0.0011;0.0;-0.71;-23.61;-33.94;147.87;-14.94;14.12;2.0;55.699944;-4.091978;922.83;NaN;0.0;31.122583;;11 / 30;43308;2022-03-07 02:05:44:306
-2.3297;2.528;9.224;-2.3108;2.5296;9.1887;0.0012;-0.007;0.0029;0.0012;-0.0011;8.0E-4;0.0;-0.71;-23.61;-33.94;147.87;-14.94;14.12;2.0;55.699944;-4.091978;922.83;NaN;0.0;31.122583;;11 / 30;43409;2022-03-07 02:05:44:407
-2.3201;2.5352;9.2037;-2.3108;2.5299;9.1886;-0.0033;-0.0064;-0.0021;0.0012;-0.0011;5.0E-4;0.0;-0.86;-23.51;-34.03;147.87;-14.95;14.12;2.0;55.699944;-4.091978;922.83;NaN;0.0;31.122583;;11 / 30;43508;2022-03-07 02:05:44:506
-2.3285;2.5256;9.2192;-2.3108;2.5302;9.1885;-0.0036;-0.002;0.0035;0.0023;0.0;6.0E-4;0.0;-0.94;-23.62;-34.11;147.87;-14.95;14.12;2.0;55.699944;-4.091978;922.83;NaN;0.0;31.122583;;11 / 30;43609;2022-03-07 02:05:44:607
-2.3154;2.528;9.2192;-2.3112;2.5302;9.1884;-0.0034;-0.0082;-0.004;0.0023;0.0;6.0E-4;0.0;-0.88;-23.47;-34.22;146.09;-14.95;14.12;2.0;55.699944;-4.091978;922.83;NaN;0.0;31.122583;;11 / 30;43708;2022-03-07 02:05:44:706
-2.3189;2.534;9.2085;-2.3111;2.5302;9.1884;-0.0071;-0.0113;-0.0051;0.0015;-0.0015;9.0E-4;0.0;-0.88;-23.47;-34.22;146.09;-14.95;14.12;2.0;55.699944;-4.091978;922.83;NaN;0.0;31.122583;;11 / 30;43808;2022-03-07 02:05:44:806
-2.3297;2.5256;9.2181;-2.3118;2.5298;9.1884;-0.0017;-0.0076;0.0021;9.0E-4;2.0E-4;6.0E-4;0.0;-1.14;-23.57;-33.98;147.86;-14.95;14.12;2.0;55.699944;-4.091978;922.83;NaN;0.0;31.122583;;11 / 30;43908;2022-03-07 02:05:44:906
-2.3201;2.5388;9.2061;-2.3118;2.5298;9.1884;-0.0017;-0.0076;0.0021;9.0E-4;-0.0018;5.0E-4;0.0;-1.24;-23.62;-33.9;147.86;-14.95;14.12;2.0;55.699944;-4.091978;922.83;NaN;0.0;31.122583;;11 / 30;44008;2022-03-07 02:05:45:006
-2.3118;2.5232;9.2276;-2.3112;2.5297;9.1885;0.002;-0.0075;-1.0E-4;9.0E-4;-0.0018;5.0E-4;0.0;-1.24;-23.38;-33.71;146.09;-14.95;14.12;2.0;55.699944;-4.091978;922.83;NaN;0.0;31.122583;;11 / 30;44108;2022-03-07 02:05:45:106
-2.3321;2.5232;9.2121;-2.3103;2.5298;9.1887;3.0E-4;-0.002;-0.0031;0.0012;-8.0E-4;5.0E-4;0.0;-1.24;-23.38;-33.71;146.09;-14.95;14.12;2.0;55.699944;-4.091978;922.83;NaN;0.0;31.122583;;11 / 30;44208;2022-03-07 02:05:45:206
-2.3201;2.5364;9.2037;-2.3098;2.5292;9.189;-0.0033;-0.0059;0.0043;0.0018;-3.0E-4;8.0E-4;0.0;-1.41;-23.34;-33.34;147.27;-14.95;14.11;2.0;55.699944;-4.091978;922.83;NaN;0.0;31.122583;;11 / 30;44308;2022-03-07 02:05:45:306
-2.3261;2.5364;9.2109;-2.3101;2.5302;9.1887;-3.0E-4;9.0E-4;-0.0017;0.0015;2.0E-4;2.0E-4;0.0;-1.05;-23.29;-33.13;147.27;-14.95;14.11;2.0;55.699944;-4.091978;922.83;NaN;0.0;31.122583;;11 / 30;44408;2022-03-07 02:05:45:406
-2.3297;2.5268;9.2097;-2.3114;2.5301;9.1884;-0.0105;0.0029;-0.0024;0.0015;2.0E-4;2.0E-4;0.0;-0.81;-23.38;-33.04;147.27;-14.95;14.11;2.0;55.699944;-4.091978;922.83;NaN;0.0;31.122583;;11 / 30;44509;2022-03-07 02:05:45:507
-2.3213;2.5352;9.2085;-2.3133;2.5314;9.1875;-0.0011;-0.0071;-3.0E-4;0.0029;0.0018;0.0012;0.0;-0.81;-23.38;-33.04;147.27;-14.95;14.11;2.0;55.699944;-4.091978;922.83;NaN;0.0;31.122583;;11 / 30;44608;2022-03-07 02:05:45:606
-2.3142;2.5376;9.2121;-2.3133;2.5314;9.1875;-0.0011;-0.0071;-3.0E-4;0.0014;-6.0E-4;8.0E-4;0.0;-0.66;-23.44;-33.26;147.23;-14.96;14.13;2.0;55.699944;-4.091978;922.83;NaN;0.0;31.122583;;11 / 30;44708;2022-03-07 02:05:45:706
-2.3177;2.5627;9.2145;-2.3135;2.5317;9.1874;-0.0014;-0.0121;4.0E-4;0.0011;-0.0011;6.0E-4;0.0;-0.49;-23.42;-33.58;147.23;-14.96;14.13;2.0;55.699944;-4.091978;922.83;NaN;0.0;31.122583;;11 / 30;44808;2022-03-07 02:05:45:806
-2.3201;2.5316;9.1977;-2.3131;2.5331;9.1871;1.0E-4;0.0118;-0.0053;0.0011;-0.0011;6.0E-4;0.0;-0.73;-23.17;-33.92;146.04;-14.97;14.13;2.0;55.699944;-4.091978;922.83;NaN;0.0;31.122583;;11 / 30;44909;2022-03-07 02:05:45:907
-2.3345;2.5208;9.2145;-2.3138;2.5329;9.187;-0.0082;-0.0102;0.0076;0.0015;-0.0017;8.0E-4;0.0;-0.73;-23.17;-33.92;146.04;-14.97;14.13;2.0;55.699944;-4.091978;922.83;NaN;0.0;31.122583;;11 / 30;45009;2022-03-07 02:05:46:007
-2.3142;2.528;9.2073;-2.3126;2.531;9.1878;-0.0085;-0.0125;0.0075;8.0E-4;-0.0018;6.0E-4;0.0;-0.86;-22.84;-34.24;146.04;-14.97;14.14;2.0;55.699944;-4.091978;922.83;NaN;0.0;31.122583;;11 / 30;45110;2022-03-07 02:05:46:108
-2.3201;2.5352;9.2121;-2.3109;2.5298;9.1886;-0.0012;-0.0155;0.0042;5.0E-4;-0.0017;5.0E-4;0.0;-1.09;-22.84;-34.29;146.04;-14.97;14.14;2.0;55.699944;-4.091978;922.83;NaN;0.0;31.122583;;11 / 30;45209;2022-03-07 02:05:46:207
-2.313;2.5244;9.2157;-2.3098;2.5289;9.1891;-0.0041;-0.0092;0.0053;5.0E-4;-0.0017;5.0E-4;0.0;-1.01;-22.86;-34.29;146.09;-14.95;14.12;2.0;55.699944;-4.091978;922.83;NaN;0.0;31.122583;;11 / 30;45309;2022-03-07 02:05:46:307
-2.313;2.5125;9.1953;-2.3088;2.5289;9.1894;-3.0E-4;-0.0016;0.0024;3.0E-4;-0.0017;6.0E-4;0.0;-1.01;-22.86;-34.29;146.09;-14.95;14.12;2.0;55.699944;-4.091978;922.83;NaN;0.0;31.122583;;11 / 30;45408;2022-03-07 02:05:46:406
-2.3213;2.5352;9.1917;-2.3088;2.5289;9.1894;-3.0E-4;-0.0016;0.0024;6.0E-4;-8.0E-4;8.0E-4;0.0;-1.05;-23.01;-34.14;146.12;-14.94;14.1;2.0;55.699944;-4.091978;922.83;NaN;0.0;31.122583;;9 / 30;45508;2022-03-07 02:05:46:506
-2.3213;2.5208;9.2252;-2.3077;2.5274;9.1901;-0.0052;-0.0022;0.0122;0.0017;5.0E-4;6.0E-4;0.0;-1.12;-23.44;-34.01;146.12;-14.94;14.1;2.0;55.699944;-4.091978;922.83;NaN;0.0;31.122583;;9 / 30;45609;2022-03-07 02:05:46:607
-2.307;2.5388;9.1965;-2.3086;2.5261;9.1902;-0.0059;-0.0114;0.0014;0.0017;5.0E-4;6.0E-4;0.0;-1.18;-23.36;-33.81;146.14;-14.93;14.1;2.0;55.699944;-4.091978;922.83;NaN;0.0;31.122583;;9 / 30;45708;2022-03-07 02:05:46:706
-2.3237;2.5328;9.1977;-2.3067;2.5253;9.1909;0.0034;-0.0077;0.0088;8.0E-4;-0.0017;2.0E-4;0.0;-1.18;-23.36;-33.81;146.14;-14.93;14.1;2.0;55.699944;-4.091978;922.83;NaN;0.0;31.122583;;9 / 30;45809;2022-03-07 02:05:46:807
-2.3046;2.5161;9.224;-2.3061;2.5243;9.1913;-0.0049;-0.0098;-0.0053;0.0011;-0.0017;5.0E-4;0.0;-1.33;-23.25;-33.64;146.17;-14.92;14.09;2.0;55.699944;-4.091978;922.83;NaN;0.0;31.122583;;9 / 30;45909;2022-03-07 02:05:46:907
-2.3094;2.5196;9.2204;-2.3039;2.524;9.1919;-0.0014;3.0E-4;-4.0E-4;0.0015;5.0E-4;0.0;0.0;-1.33;-23.25;-33.64;146.17;-14.92;14.09;2.0;55.699944;-4.091978;922.83;NaN;0.0;31.122583;;9 / 30;46008;2022-03-07 02:05:47:006
-2.3166;2.5388;9.1762;-2.3065;2.524;9.1913;-0.0039;-0.0114;0.0104;0.0015;5.0E-4;0.0;0.0;-1.37;-23.23;-33.54;146.2;-14.91;14.07;2.0;55.699944;-4.091978;922.83;NaN;0.0;31.122583;;9 / 30;46110;2022-03-07 02:05:47:108
-2.2998;2.5268;9.2025;-2.3052;2.5242;9.1916;0.0041;-0.0029;0.0058;3.0E-4;-0.002;6.0E-4;0.0;-1.37;-23.23;-33.54;146.2;-14.91;14.07;2.0;55.699944;-4.091978;922.83;NaN;0.0;31.122583;;9 / 30;46209;2022-03-07 02:05:47:207
-2.3369;2.5484;9.2216;-2.3052;2.5242;9.1916;0.0041;-0.0029;0.0058;0.0044;8.0E-4;-5.0E-4;0.0;-1.2;-23.25;-33.41;147.36;-14.92;14.08;2.0;55.699944;-4.091978;922.83;NaN;0.0;31.122583;;9 / 30;46309;2022-03-07 02:05:47:307
-2.307;2.5113;9.2312;-2.3064;2.5277;9.1903;-0.0152;0.0093;-0.0011;-8.0E-4;-0.0029;9.0E-4;0.0;-1.31;-23.31;-33.73;147.36;-14.92;14.08;2.0;55.699944;-4.091978;922.83;NaN;0.0;31.122583;;9 / 30;46409;2022-03-07 02:05:47:407
-2.295;2.5137;9.23;-2.3047;2.5254;9.1914;-0.0079;-0.0073;0.0055;-8.0E-4;-0.0029;9.0E-4;0.0;-1.29;-23.32;-33.77;146.19;-14.92;14.08;2.0;55.699944;-4.091978;922.83;NaN;0.0;31.122583;;9 / 30;46509;2022-03-07 02:05:47:507
-2.3381;2.4969;9.2492;-2.3061;2.5249;9.1911;0.0111;-0.0093;0.0142;9.0E-4;9.0E-4;0.0;0.0;-1.29;-23.32;-33.77;146.19;-14.92;14.08;2.0;55.699944;-4.091978;922.83;NaN;0.0;31.122583;;9 / 30;46608;2022-03-07 02:05:47:606
-2.3345;2.5591;9.1977;-2.3077;2.5253;9.1906;-0.0195;-0.0018;0.0099;0.0021;3.0E-4;5.0E-4;0.0;-1.22;-23.1;-33.96;146.18;-14.92;14.08;2.0;55.699944;-4.091978;922.83;NaN;0.0;31.122583;;9 / 30;46708;2022-03-07 02:05:47:706
-2.3225;2.5388;9.23;-2.3078;2.528;9.1899;0.0041;-0.0192;-0.0019;0.0027;-0.0015;6.0E-4;0.0;-0.99;-23.1;-34.14;146.18;-14.92;14.08;2.0;55.699944;-4.091978;922.83;NaN;0.0;31.122583;;9 / 30;46808;2022-03-07 02:05:47:806
-2.3094;2.534;9.2013;-2.3075;2.5281;9.1899;-0.0089;-0.0034;-0.0019;0.0027;-0.0015;6.0E-4;0.0;-0.86;-23.06;-34.03;146.13;-14.94;14.1;2.0;55.699944;-4.091978;922.83;NaN;0.0;31.122583;;9 / 30;46909;2022-03-07 02:05:47:907
-2.3285;2.5496;9.2276;-2.3075;2.5281;9.1899;-0.0089;-0.0034;-0.0019;0.0021;8.0E-4;5.0E-4;0.0;-0.86;-23.06;-34.03;146.13;-14.94;14.1;2.0;55.699944;-4.091978;922.83;NaN;0.0;31.122583;;9 / 30;47008;2022-03-07 02:05:48:006
-2.3237;2.5089;9.2216;-2.3079;2.5295;9.1894;-0.0071;-0.0106;-0.0038;2.0E-4;-0.0011;5.0E-4;0.0;-0.84;-23.31;-34.07;146.12;-14.95;14.1;2.0;55.699944;-4.091978;922.83;NaN;0.0;31.122583;;9 / 30;47108;2022-03-07 02:05:48:106
-2.3189;2.5292;9.2181;-2.3082;2.5295;9.1894;-0.0053;-0.0129;0.0047;0.002;-6.0E-4;6.0E-4;0.0;-0.84;-23.31;-34.07;146.12;-14.95;14.1;2.0;55.699944;-4.091978;922.83;NaN;0.0;31.122583;;9 / 30;47208;2022-03-07 02:05:48:206
-2.3261;2.534;9.23;-2.3089;2.5307;9.1889;-0.0047;-0.0076;-0.0022;0.002;-6.0E-4;6.0E-4;0.0;-0.97;-23.53;-33.62;147.89;-14.95;14.1;2.0;55.699944;-4.091978;922.83;NaN;0.0;31.122583;;9 / 30;47309;2022-03-07 02:05:48:307
-2.3249;2.5328;9.2025;-2.3081;2.5296;9.1893;-0.003;-0.0067;-0.0038;6.0E-4;-0.0011;9.0E-4;0.0;-0.97;-23.53;-33.62;147.89;-14.95;14.1;2.0;55.699944;-4.091978;922.83;NaN;0.0;31.122583;;9 / 30;47409;2022-03-07 02:05:48:407
-2.3106;2.5316;9.1905;-2.3078;2.5283;9.1898;-0.0036;-0.0075;0.0056;0.0012;-0.0021;5.0E-4;0.0;-1.05;-23.76;-33.58;147.89;-14.95;14.1;2.0;55.699944;-4.091978;922.83;NaN;0.0;31.122583;;9 / 30;47508;2022-03-07 02:05:48:506
-2.3297;2.5448;9.1475;-2.3086;2.5295;9.1893;0.0028;0.0017;0.0245;0.0012;0.0011;6.0E-4;0.0;-1.18;-23.74;-33.54;147.89;-14.95;14.1;2.0;55.699944;-4.091978;922.83;NaN;0.0;31.122583;;9 / 30;47609;2022-03-07 02:05:48:607
-2.301;2.534;9.2097;-2.3083;2.5299;9.1892;0.0037;-0.0055;-0.0019;0.0012;0.0011;6.0E-4;0.0;-1.16;-23.61;-33.68;147.89;-14.95;14.1;2.0;55.699944;-4.091978;922.83;NaN;0.0;31.122583;;9 / 30;47708;2022-03-07 02:05:48:706
-2.3333;2.5268;9.2408;-2.3083;2.5299;9.1892;0.0037;-0.0055;-0.0019;0.0017;-0.0014;9.0E-4;0.0;-1.16;-23.61;-33.68;147.89;-14.95;14.1;2.0;55.699944;-4.091978;922.83;NaN;0.0;31.122583;;9 / 30;47809;2022-03-07 02:05:48:807
-2.3225;2.5268;9.2109;-2.3086;2.5301;9.1891;-0.0084;-0.0081;0.0078;0.0018;-2.0E-4;5.0E-4;0.0;-1.41;-23.32;-33.58;146.11;-14.95;14.1;2.0;55.699944;-4.091978;922.83;NaN;0.0;31.122583;;9 / 30;47910;2022-03-07 02:05:48:908
-2.3249;2.522;9.2276;-2.3088;2.5295;9.1892;-0.0057;-0.0066;0.0033;0.0034;-6.0E-4;-2.0E-4;0.0;-1.41;-23.32;-33.58;146.11;-14.95;14.1;2.0;55.699944;-4.091978;922.83;NaN;0.0;31.122583;;9 / 30;48009;2022-03-07 02:05:49:007
-2.3237;2.5316;9.2264;-2.3088;2.53;9.1891;8.0E-4;-0.0194;0.0034;0.0034;-6.0E-4;-2.0E-4;0.0;-1.29;-23.34;-33.81;146.11;-14.95;14.1;2.0;55.699944;-4.091978;922.83;NaN;0.0;31.122583;;9 / 30;48109;2022-03-07 02:05:49:107
-2.3034;2.5232;9.2109;-2.3078;2.5298;9.1893;-0.0044;-0.005;-0.0031;-2.0E-4;-0.0027;3.0E-4;0.0;-1.07;-23.38;-33.84;146.11;-14.95;14.1;2.0;55.699944;-4.091978;922.83;NaN;0.0;31.122583;;9 / 30;48209;2022-03-07 02:05:49:207
-2.3393;2.5388;9.2145;-2.307;2.53;9.1895;-0.0033;-0.0054;4.0E-4;0.0023;-2.0E-4;8.0E-4;0.0;-0.94;-23.47;-33.92;146.12;-14.95;14.1;2.0;55.699944;-4.091978;922.83;NaN;0.0;31.122583;;9 / 30;48309;2022-03-07 02:05:49:307
-2.3154;2.5304;9.2013;-2.3077;2.5295;9.1895;0.0021;7.0E-4;-0.0151;0.0027;6.0E-4;8.0E-4;0.0;-0.94;-23.47;-33.92;146.12;-14.95;14.1;2.0;55.699944;-4.091978;922.83;NaN;0.0;31.122583;;9 / 30;48409;2022-03-07 02:05:49:407
-2.3261;2.5376;9.1929;-2.3073;2.5311;9.1891;-9.0E-4;9.0E-4;-0.0052;0.0027;6.0E-4;8.0E-4;0.0;-1.03;-23.47;-34.16;146.12;-14.95;14.1;2.0;55.699944;-4.091978;922.83;NaN;0.0;31.122583;;11 / 29;48508;2022-03-07 02:05:49:506
-2.3429;2.5579;9.2276;-2.3073;2.5311;9.1891;-9.0E-4;9.0E-4;-0.0052;0.002;3.0E-4;8.0E-4;0.0;-1.03;-23.47;-34.16;146.12;-14.95;14.1;2.0;55.699944;-4.091978;922.83;NaN;0.0;31.122583;;11 / 29;48609;2022-03-07 02:05:49:607
-2.3142;2.534;9.2169;-2.3065;2.5295;9.1898;-0.0052;-0.0059;0.0022;-0.0017;-0.0041;5.0E-4;0.0;-1.22;-23.42;-33.62;146.11;-14.96;14.09;2.0;55.699944;-4.091978;922.83;NaN;0.0;31.122583;;11 / 29;48709;2022-03-07 02:05:49:707
-2.307;2.546;9.2192;-2.3043;2.5275;9.1909;-0.0035;-0.0059;-0.004;0.0;-0.0018;0.0;0.0;-1.16;-23.23;-33.47;146.11;-14.96;14.09;2.0;55.699944;-4.091978;922.83;NaN;0.0;31.122583;;11 / 29;48809;2022-03-07 02:05:49:807
-2.3106;2.5113;9.2288;-2.3029;2.5269;9.1914;-0.0046;-0.0076;-0.0058;0.0;-0.0018;0.0;0.0;-1.07;-23.36;-33.19;147.36;-14.93;14.07;2.0;55.699944;-4.091978;922.83;NaN;0.0;31.122583;;11 / 29;48908;2022-03-07 02:05:49:906
-2.3034;2.5436;9.2228;-2.3013;2.5259;9.1921;-0.0047;-0.0041;0.0029;8.0E-4;-0.0018;6.0E-4;0.0;-1.07;-23.36;-33.19;147.36;-14.93;14.07;2.0;55.699944;-4.091978;922.83;NaN;0.0;31.122583;;11 / 29;49009;2022-03-07 02:05:50:007
-2.3154;2.5113;9.2097;-2.3;2.5249;9.1927;-0.0067;-0.008;0.0084;8.0E-4;-0.0015;3.0E-4;0.0;-1.16;-23.25;-32.96;147.39;-14.93;14.06;2.0;55.699944;-4.091978;922.83;NaN;0.0;31.122583;;11 / 29;49108;2022-03-07 02:05:50:106
-2.301;2.528;9.2085;-2.2992;2.5237;9.1932;8.0E-4;-0.0075;-0.002;0.0011;-9.0E-4;2.0E-4;0.0;-1.16;-23.25;-32.96;147.39;-14.93;14.06;2.0;55.699944;-4.091978;922.83;NaN;0.0;31.122583;;11 / 29;49210;2022-03-07 02:05:50:208
-2.2962;2.5232;9.2157;-2.2992;2.5237;9.1932;8.0E-4;-0.0075;-0.002;0.0011;-9.0E-4;2.0E-4;0.0;-1.29;-23.23;-33.45;147.42;-14.91;14.04;2.0;55.699944;-4.091978;922.83;NaN;0.0;31.122583;;11 / 29;49309;2022-03-07 02:05:50:307
-2.3082;2.5268;9.2384;-2.2994;2.524;9.1931;0.0014;-0.005;0.0021;0.0017;0.0;2.0E-4;0.0;-1.29;-23.23;-33.45;147.42;-14.91;14.04;2.0;55.699944;-4.091978;922.83;NaN;0.0;31.122583;;11 / 29;49409;2022-03-07 02:05:50:407
-2.3094;2.5268;9.2037;-2.2989;2.5242;9.1931;-0.0036;0.0029;-0.0025;9.0E-4;0.0011;3.0E-4;0.0;-1.28;-23.29;-33.68;146.25;-14.91;14.04;2.0;55.699944;-4.091978;922.83;NaN;0.0;31.122583;;11 / 30;49509;2022-03-07 02:05:50:507
-2.3082;2.5172;9.2133;-2.2998;2.5224;9.1934;-0.0042;-0.015;0.0037;0.002;0.0014;0.0017;0.0;-1.28;-23.29;-33.68;146.25;-14.91;14.04;2.0;55.699944;-4.091978;922.83;NaN;0.0;31.122583;;11 / 30;49609;2022-03-07 02:05:50:607
-2.307;2.5244;9.1965;-2.3009;2.5226;9.1931;-0.0047;-0.0072;0.0045;0.002;0.0014;0.0017;0.0;-1.39;-23.32;-33.94;146.26;-14.9;14.04;2.0;55.699944;-4.091978;922.83;NaN;0.0;31.122583;;11 / 30;49709;2022-03-07 02:05:50:707
-2.3094;2.522;9.2192;-2.3003;2.5223;9.1933;0.0;-0.0091;0.0064;0.0018;-3.0E-4;6.0E-4;0.0;-1.39;-23.32;-33.94;146.26;-14.9;14.04;2.0;55.699944;-4.091978;922.83;NaN;0.0;31.122583;;11 / 30;49809;2022-03-07 02:05:50:807
-2.3082;2.522;9.2013;-2.3003;2.5221;9.1934;-0.0037;-0.0035;-0.0011;0.0011;-5.0E-4;3.0E-4;0.0;-1.28;-23.42;-33.69;146.25;-14.9;14.05;2.0;55.699944;-4.091978;922.83;NaN;0.0;31.122583;;11 / 30;49909;2022-03-07 02:05:50:907
-2.3177;2.5244;9.2061;-2.3001;2.5225;9.1933;-0.0043;-0.0027;0.0014;9.0E-4;-8.0E-4;5.0E-4;0.0;-1.35;-23.61;-33.79;146.25;-14.9;14.05;2.0;55.699944;-4.091978;922.83;NaN;0.0;31.122583;;11 / 30;50009;2022-03-07 02:05:51:007
-2.3177;2.5244;9.2061;-2.3001;2.5225;9.1933;-0.0043;-0.0027;0.0014;9.0E-4;-8.0E-4;5.0E-4;0.0;-1.22;-23.44;-33.41;147.42;-14.91;14.05;2.0;55.699944;-4.091978;922.83;NaN;0.0;31.122583;;11 / 30;50109;2022-03-07 02:05:51:107
-2.3094;2.5232;9.2073;-2.3005;2.5218;9.1934;-0.0018;-0.0057;6.0E-4;0.0012;-6.0E-4;0.0;0.0;-1.22;-23.44;-33.41;147.42;-14.91;14.05;2.0;55.699944;-4.091978;922.83;NaN;0.0;31.122583;;11 / 30;50209;2022-03-07 02:05:51:207
-2.3106;2.5196;9.2169;-2.3007;2.5222;9.1932;-0.0014;-0.007;-1.0E-4;0.0027;6.0E-4;6.0E-4;0.0;-1.03;-23.51;-33.37;149.13;-14.9;14.05;2.0;55.699944;-4.091978;922.83;NaN;0.0;31.122583;;11 / 30;50309;2022-03-07 02:05:51:307
-2.3166;2.546;9.2133;-2.3038;2.524;9.192;0.0035;-0.0199;0.0012;0.0035;0.0078;-0.0015;0.0;-0.86;-23.42;-33.54;149.13;-14.9;14.05;2.0;55.699944;-4.091978;922.83;NaN;0.0;31.122583;;11 / 30;50408;2022-03-07 02:05:51:406
-2.3249;2.5256;9.2061;-2.313;2.526;9.1891;-0.0063;0.0111;-2.0E-4;0.0035;0.0078;-0.0015;0.0;-0.96;-22.99;-33.66;146.1;-14.93;14.13;2.0;55.699944;-4.091978;922.83;NaN;0.0;31.122583;;11 / 30;50508;2022-03-07 02:05:51:506
-2.3249;2.5256;9.2061;-2.3174;2.526;9.188;0.0013;-0.0036;-8.0E-4;0.0015;0.0041;2.0E-4;0.0;-0.96;-22.99;-33.66;146.1;-14.93;14.13;2.0;55.699944;-4.091978;922.83;NaN;0.0;31.122583;;11 / 30;50609;2022-03-07 02:05:51:607
-2.3225;2.5232;9.1881;-2.32;2.5258;9.1874;0.0012;-0.0083;-0.0057;0.0027;0.0011;-3.0E-4;0.0;-0.96;-23.17;-34.07;146.06;-14.93;14.16;2.0;55.699944;-4.091978;922.83;NaN;0.0;31.122583;;11 / 30;50709;2022-03-07 02:05:51:707
-2.3405;2.5316;9.1989;-2.3212;2.5278;9.1866;-0.0053;0.007;0.0114;9.0E-4;-0.0011;0.0011;0.0;-1.14;-23.23;-34.28;146.06;-14.93;14.16;2.0;55.699944;-4.091978;922.83;NaN;0.0;31.122583;;11 / 30;50810;2022-03-07 02:05:51:808
-2.3285;2.5352;9.2336;-2.3212;2.5278;9.1866;-0.0053;0.007;0.0114;9.0E-4;-0.0011;0.0011;0.0;-1.16;-23.42;-34.44;146.01;-14.94;14.18;2.0;55.699944;-4.091978;922.83;NaN;0.0;31.122583;;11 / 30;50909;2022-03-07 02:05:51:907
-2.3297;2.5101;9.1977;-2.3172;2.5266;9.1879;-7.0E-4;-0.002;-0.0065;-3.0E-4;-0.0067;0.0015;0.0;-1.16;-23.42;-34.44;146.01;-14.94;14.18;2.0;55.699944;-4.091978;922.83;NaN;0.0;31.122583;;11 / 30;51008;2022-03-07 02:05:52:006
-2.3189;2.5328;9.1941;-2.3124;2.5251;9.1895;-0.0036;-0.0169;-0.0026;0.0012;-0.0029;0.0011;0.0;-1.12;-23.53;-34.26;147.83;-14.93;14.16;2.0;55.699944;-4.091978;922.83;NaN;0.0;31.122583;;11 / 30;51108;2022-03-07 02:05:52:106
-2.3333;2.5567;9.2049;-2.3119;2.5269;9.1892;-0.0017;-0.0031;-0.0016;0.0041;0.0015;0.0012;0.0;-1.12;-23.53;-34.26;147.83;-14.93;14.16;2.0;55.699944;-4.091978;922.83;NaN;0.0;31.122583;;11 / 30;51208;2022-03-07 02:05:52:206
-2.3417;2.5268;9.2264;-2.3126;2.5288;9.1884;0.0023;-3.0E-4;0.0069;0.0041;0.0015;0.0012;0.0;-0.99;-23.62;-34.16;147.88;-14.93;14.12;2.0;55.699944;-4.091978;922.83;NaN;0.0;31.122583;;11 / 30;51308;2022-03-07 02:05:52:306
-2.3249;2.5172;9.2192;-2.314;2.5307;9.1876;-0.0082;-0.0066;0.0034;0.0024;9.0E-4;6.0E-4;0.0;-1.28;-23.53;-34.07;147.88;-14.93;14.12;2.0;55.699944;-4.091978;922.83;NaN;0.0;31.122583;;11 / 30;51408;2022-03-07 02:05:52:406
-2.3333;2.5196;9.2133;-2.313;2.5317;9.1875;-0.0018;-0.0051;0.0043;0.0024;-0.0011;8.0E-4;0.0;-1.16;-23.55;-34.03;147.83;-14.96;14.14;2.0;55.699944;-4.091978;922.83;NaN;0.0;31.122583;;12 / 29;51509;2022-03-07 02:05:52:507
-2.3201;2.5172;9.2013;-2.313;2.5317;9.1875;-0.0018;-0.0051;0.0043;0.0018;2.0E-4;0.0011;0.0;-1.16;-23.55;-34.03;147.83;-14.96;14.14;2.0;55.699944;-4.091978;922.83;NaN;0.0;31.122583;;12 / 29;51609;2022-03-07 02:05:52:607
-2.3177;2.5244;9.2228;-2.3139;2.5319;9.1873;0.0032;-0.0094;-0.0073;0.0018;2.0E-4;0.0011;0.0;-1.24;-23.29;-33.84;146.04;-14.96;14.14;2.0;55.699944;-4.091978;922.83;NaN;0.0;31.122583;;12 / 29;51710;2022-03-07 02:05:52:708
-2.3477;2.5567;9.2037;-2.313;2.5327;9.1872;3.0E-4;-0.0066;0.0015;0.0023;-0.0011;6.0E-4;0.0;-1.22;-23.19;-33.49;146.04;-14.96;14.14;2.0;55.699944;-4.091978;922.83;NaN;0.0;31.122583;;12 / 29;51809;2022-03-07 02:05:52:807
-2.3034;2.5244;9.2109;-2.3125;2.5318;9.1876;-0.0083;-0.0016;0.0094;0.0046;5.0E-4;8.0E-4;0.0;-1.05;-23.23;-33.47;147.23;-14.96;14.13;2.0;55.699944;-4.091978;922.83;NaN;0.0;31.122583;;12 / 29;51909;2022-03-07 02:05:52:907
-2.3297;2.54;9.1666;-2.3123;2.533;9.1874;-0.0102;0.013;0.0183;0.0017;-8.0E-4;2.0E-4;0.0;-1.05;-23.23;-33.47;147.23;-14.96;14.13;2.0;55.699944;-4.091978;922.83;NaN;0.0;31.122583;;12 / 29;52008;2022-03-07 02:05:53:006
-2.3297;2.5448;9.1989;-2.3121;2.5328;9.1875;-0.0026;-0.0103;3.0E-4;0.0017;-8.0E-4;2.0E-4;0.0;-1.07;-23.21;-33.49;147.23;-14.97;14.13;2.0;55.699944;-4.091978;922.83;NaN;0.0;31.122583;;12 / 29;52109;2022-03-07 02:05:53:107
-2.313;2.5304;9.2097;-2.3113;2.5324;9.1878;2.0E-4;-0.0107;-0.0031;9.0E-4;-0.0018;2.0E-4;0.0;-1.07;-23.21;-33.49;147.23;-14.97;14.13;2.0;55.699944;-4.091978;922.83;NaN;0.0;31.122583;;12 / 29;52208;2022-03-07 02:05:53:206
-2.3309;2.5484;9.2049;-2.3106;2.5328;9.1878;-0.0091;0.0;9.0E-4;0.0023;-0.002;-2.0E-4;0.0;-1.18;-23.38;-33.68;146.06;-14.97;14.12;2.0;55.699944;-4.091978;922.83;NaN;0.0;31.122583;;12 / 29;52308;2022-03-07 02:05:53:306
-2.3285;2.5376;9.2145;-2.3106;2.5328;9.1878;-0.0091;0.0;9.0E-4;2.0E-4;-0.0024;2.0E-4;0.0;-1.46;-23.4;-33.69;146.06;-14.97;14.12;2.0;55.699944;-4.091978;922.83;NaN;0.0;31.122583;;12 / 29;52408;2022-03-07 02:05:53:406
-2.3106;2.5436;9.2073;-2.3105;2.5321;9.1881;-0.006;-0.0013;0.0011;2.0E-4;-0.0024;2.0E-4;0.0;-1.52;-23.46;-33.62;143.51;-14.96;14.12;2.0;55.699944;-4.091978;922.83;NaN;0.0;31.122583;;11 / 30;52509;2022-03-07 02:05:53:507
-2.3118;2.522;9.1774;-2.3103;2.532;9.1881;-0.0046;0.0026;0.0055;8.0E-4;2.0E-4;-2.0E-4;0.0;-1.52;-23.46;-33.62;143.51;-14.96;14.12;2.0;55.699944;-4.091978;922.83;NaN;0.0;31.122583;;11 / 30;52609;2022-03-07 02:05:53:607
-2.3285;2.5388;9.2192;-2.3115;2.5306;9.1882;-0.0084;-0.0161;-0.0093;0.0017;5.0E-4;3.0E-4;0.0;-1.31;-23.46;-33.51;146.08;-14.96;14.11;2.0;55.699944;-4.091978;922.83;NaN;0.0;31.122583;;11 / 30;52708;2022-03-07 02:05:53:706
-2.3321;2.5089;9.2468;-2.3123;2.5317;9.1877;0.0044;-0.0016;-0.0045;-6.0E-4;-0.0026;5.0E-4;0.0;-1.31;-23.46;-33.51;146.08;-14.96;14.11;2.0;55.699944;-4.091978;922.83;NaN;0.0;31.122583;;11 / 30;52808;2022-03-07 02:05:53:806
-2.3201;2.522;9.1846;-2.3124;2.5298;9.1882;0.0033;-0.006;0.0069;-6.0E-4;-0.0026;5.0E-4;0.0;-1.09;-23.1;-33.39;147.24;-14.96;14.13;2.0;55.699944;-4.091978;922.83;NaN;0.0;31.122583;;11 / 30;52908;2022-03-07 02:05:53:906
-2.3249;2.5304;9.1917;-2.3142;2.528;9.1883;-0.0077;0.0021;0.0115;0.002;0.0012;5.0E-4;0.0;-1.09;-23.1;-33.39;147.24;-14.96;14.13;2.0;55.699944;-4.091978;922.83;NaN;0.0;31.122583;;11 / 30;53008;2022-03-07 02:05:54:006
-2.3154;2.5172;9.23;-2.3128;2.5267;9.189;0.0018;-0.0099;0.0043;9.0E-4;-0.0018;2.0E-4;0.0;-1.03;-22.99;-33.71;146.07;-14.94;14.14;2.0;55.699944;-4.091978;922.83;NaN;0.0;31.122583;;11 / 30;53109;2022-03-07 02:05:54:107
-2.3106;2.54;9.2085;-2.3128;2.5267;9.189;0.0018;-0.0099;0.0043;0.0014;-0.0012;-2.0E-4;0.0;-1.22;-23.06;-33.84;146.07;-14.94;14.14;2.0;55.699944;-4.091978;922.83;NaN;0.0;31.122583;;11 / 30;53208;2022-03-07 02:05:54:206
-2.3106;2.5232;9.1857;-2.3103;2.5253;9.19;0.0027;-0.0062;0.0142;0.0014;-0.0012;-2.0E-4;0.0;-1.18;-23.36;-34.03;146.13;-14.92;14.11;2.0;55.699944;-4.091978;922.83;NaN;0.0;31.122583;;11 / 30;53308;2022-03-07 02:05:54:306
-2.3213;2.5256;9.2037;-2.3122;2.5249;9.1896;-0.0054;-0.0134;-0.0164;0.0031;9.0E-4;3.0E-4;0.0;-1.18;-23.36;-34.03;146.13;-14.92;14.11;2.0;55.699944;-4.091978;922.83;NaN;0.0;31.122583;;11 / 30;53408;2022-03-07 02:05:54:406
-2.3237;2.54;9.2037;-2.3118;2.5261;9.1894;0.0035;-0.0124;0.0035;0.0034;0.0021;9.0E-4;0.0;-1.41;-23.51;-34.14;147.89;-14.92;14.12;2.0;55.699944;-4.091978;922.83;NaN;0.0;31.122583;;12 / 30;53508;2022-03-07 02:05:54:506
-2.3189;2.5065;9.2097;-2.3144;2.5277;9.1883;-0.0036;-0.0082;0.0053;0.0032;8.0E-4;9.0E-4;0.0;-1.41;-23.51;-34.14;147.89;-14.92;14.12;2.0;55.699944;-4.091978;922.83;NaN;0.0;31.122583;;12 / 30;53609;2022-03-07 02:05:54:607
-2.3201;2.5232;9.2181;-2.3145;2.5286;9.188;-0.0038;-8.0E-4;0.0037;0.0032;8.0E-4;9.0E-4;0.0;-1.41;-23.32;-34.31;146.07;-14.94;14.14;2.0;55.699944;-4.091978;922.83;NaN;0.0;31.122583;;12 / 30;53709;2022-03-07 02:05:54:707
-2.3393;2.5244;9.1953;-2.3151;2.5285;9.1879;-0.0103;-0.0064;7.0E-4;0.0024;0.0011;5.0E-4;0.0;-1.41;-23.32;-34.31;146.07;-14.94;14.14;2.0;55.699944;-4.091978;922.83;NaN;0.0;31.122583;;12 / 30;53808;2022-03-07 02:05:54:806
-2.3213;2.5424;9.2061;-2.3151;2.5285;9.1879;-0.0103;-0.0064;7.0E-4;0.0053;0.0012;0.0012;0.0;-1.42;-23.1;-34.35;146.06;-14.94;14.14;2.0;55.699944;-4.091978;922.83;NaN;0.0;31.122583;;12 / 30;53908;2022-03-07 02:05:54:906
-2.3225;2.5208;9.2671;-2.3142;2.531;9.1874;0.0015;-0.0057;-0.0062;0.0017;0.0032;0.0;0.0;-1.26;-22.93;-34.37;146.06;-14.94;14.14;2.0;55.699944;-4.091978;922.83;NaN;0.0;31.122583;;12 / 30;54008;2022-03-07 02:05:55:006
-2.3261;2.528;9.1881;-2.3159;2.5317;9.1868;7.0E-4;-0.0039;0.0118;0.0017;0.0032;0.0;0.0;-1.22;-23.03;-34.18;146.03;-14.96;14.15;2.0;55.699944;-4.091978;922.83;NaN;0.0;31.122583;;12 / 30;54109;2022-03-07 02:05:55:107
-2.3333;2.522;9.2049;-2.3152;2.533;9.1866;0.004;-0.0035;-0.0072;0.0041;-8.0E-4;9.0E-4;0.0;-1.22;-23.03;-34.18;146.03;-14.96;14.15;2.0;55.699944;-4.091978;922.83;NaN;0.0;31.122583;;12 / 30;54209;2022-03-07 02:05:55:207
-2.3046;2.528;9.1917;-2.3162;2.5355;9.1857;0.0041;-0.0056;0.013;8.0E-4;0.0037;0.0012;0.0;-1.12;-23.04;-34.26;146.02;-14.97;14.15;2.0;55.699944;-4.091978;922.83;NaN;0.0;31.122583;;12 / 30;54309;2022-03-07 02:05:55:307
-2.3441;2.5364;9.2252;-2.319;2.5362;9.1848;-0.0014;-8.0E-4;-0.0037;0.0034;0.0035;0.0029;0.0;-0.99;-23.06;-34.01;146.02;-14.97;14.15;2.0;55.699944;-4.091978;922.83;NaN;0.0;31.122583;;12 / 30;54409;2022-03-07 02:05:55:407
-2.3465;2.5196;9.236;-2.3237;2.5392;9.1828;-0.0092;-0.0056;0.0052;0.0034;0.0035;0.0029;0.0;-0.84;-23.25;-33.64;145.96;-14.99;14.17;2.0;55.699944;-4.091978;922.83;NaN;0.0;31.122583;;12 / 30;54509;2022-03-07 02:05:55:507
